Sweep (V)@Temporary,Measure (A)@Temporary
 0.00000E+0, 3.92415E-5
 9.00000E-3, 3.92415E-5
 1.80000E-2, 3.92415E-5
 2.70000E-2, 3.92415E-5
 3.60000E-2, 3.92415E-5
 4.50000E-2, 3.92415E-5
 5.40000E-2, 3.92415E-5
 6.30000E-2, 3.92415E-5
 7.20000E-2, 3.92415E-5
 8.10000E-2, 3.92415E-5
 9.00000E-2, 3.92415E-5
 9.90000E-2, 3.92415E-5
 1.08000E-1, 3.92415E-5
 1.17000E-1, 3.92415E-5
 1.26000E-1, 3.92415E-5
 1.35000E-1, 3.92415E-5
 1.44000E-1, 3.92415E-5
 1.53000E-1, 3.92415E-5
 1.62000E-1, 3.92415E-5
 1.71000E-1, 4.23647E-5
 1.80000E-1, 3.92415E-5
 1.89000E-1, 3.92415E-5
 1.98000E-1, 3.92415E-5
 2.07000E-1, 3.92415E-5
 2.16000E-1, 3.92415E-5
 2.25000E-1, 3.92415E-5
 2.34000E-1, 3.92415E-5
 2.43000E-1, 3.92415E-5
 2.52000E-1, 3.92415E-5
 2.61000E-1, 3.92415E-5
 2.70000E-1, 3.92415E-5
 2.79000E-1, 3.92415E-5
 2.88000E-1, 3.92415E-5
 2.97000E-1, 3.92415E-5
 3.06000E-1, 3.92415E-5
 3.15000E-1, 3.92415E-5
 3.24000E-1, 3.92415E-5
 3.33000E-1, 3.92415E-5
 3.42000E-1, 3.92415E-5
 3.51000E-1, 3.92415E-5
 3.60000E-1, 3.92415E-5
 3.69000E-1, 3.92415E-5
 3.78000E-1, 3.92415E-5
 3.87000E-1, 3.92415E-5
 3.96000E-1, 4.23647E-5
 4.05000E-1, 3.92415E-5
 4.14000E-1, 3.92415E-5
 4.23000E-1, 3.92415E-5
 4.32000E-1, 4.23647E-5
 4.41000E-1, 3.92415E-5
 4.50000E-1, 3.92415E-5
 4.59000E-1, 3.92415E-5
 4.68000E-1, 3.92415E-5
 4.77000E-1, 3.92415E-5
 4.86000E-1, 3.92415E-5
 4.95000E-1, 4.23647E-5
 5.04000E-1, 3.92415E-5
 5.13000E-1, 3.92415E-5
 5.22000E-1, 3.92415E-5
 5.31000E-1, 3.92415E-5
 5.40000E-1, 4.23647E-5
 5.49000E-1, 3.92415E-5
 5.58000E-1, 4.23647E-5
 5.67000E-1, 4.23647E-5
 5.76000E-1, 4.23647E-5
 5.85000E-1, 3.92415E-5
 5.94000E-1, 4.23647E-5
 6.03000E-1, 3.92415E-5
 6.12000E-1, 4.23647E-5
 6.21000E-1, 3.92415E-5
 6.30000E-1, 5.17344E-5
 6.39000E-1, 4.54880E-5
 6.48000E-1, 5.17344E-5
 6.57000E-1, 4.23647E-5
 6.66000E-1, 4.54880E-5
 6.75000E-1, 4.23647E-5
 6.84000E-1, 4.54880E-5
 6.93000E-1, 5.17344E-5
 7.02000E-1, 4.54880E-5
 7.11000E-1, 5.17344E-5
 7.20000E-1, 5.17344E-5
 7.29000E-1, 4.54880E-5
 7.38000E-1, 5.17344E-5
 7.47000E-1, 5.48577E-5
 7.56000E-1, 5.17344E-5
 7.65000E-1, 5.17344E-5
 7.74000E-1, 4.86112E-5
 7.83000E-1, 4.86112E-5
 7.92000E-1, 5.17344E-5
 8.01000E-1, 4.86112E-5
 8.10000E-1, 4.86112E-5
 8.19000E-1, 5.79809E-5
 8.28000E-1, 4.86112E-5
 8.37000E-1, 6.42274E-5
 8.46000E-1, 4.86112E-5
 8.55000E-1, 4.86112E-5
 8.64000E-1, 6.42274E-5
 8.73000E-1, 5.48577E-5
 8.82000E-1, 5.79809E-5
 8.91000E-1, 6.11041E-5
 9.00000E-1, 5.48577E-5
 9.09000E-1, 5.48577E-5
 9.18000E-1, 6.42274E-5
 9.27000E-1, 5.48577E-5
 9.36000E-1, 5.48577E-5
 9.45000E-1, 6.11041E-5
 9.54000E-1, 6.73506E-5
 9.63000E-1, 6.42274E-5
 9.72000E-1, 6.42274E-5
 9.81000E-1, 6.42274E-5
 9.90000E-1, 7.04739E-5
 9.99000E-1, 6.11041E-5
 1.00800E+0, 6.11041E-5
 1.01700E+0, 6.73506E-5
 1.02600E+0, 6.42274E-5
 1.03500E+0, 5.79809E-5
 1.04400E+0, 7.04739E-5
 1.05300E+0, 6.42274E-5
 1.06200E+0, 7.04739E-5
 1.07100E+0, 7.04739E-5
 1.08000E+0, 6.42274E-5
 1.08900E+0, 6.42274E-5
 1.09800E+0, 7.04739E-5
 1.10700E+0, 7.04739E-5
 1.11600E+0, 7.04739E-5
 1.12500E+0, 6.73506E-5
 1.13400E+0, 7.04739E-5
 1.14300E+0, 7.04739E-5
 1.15200E+0, 6.73506E-5
 1.16100E+0, 7.04739E-5
 1.17000E+0, 7.04739E-5
 1.17900E+0, 6.42274E-5
 1.18800E+0, 7.04739E-5
 1.19700E+0, 7.04739E-5
 1.20600E+0, 7.04739E-5
 1.21500E+0, 7.04739E-5
 1.22400E+0, 7.04739E-5
 1.23300E+0, 7.04739E-5
 1.24200E+0, 7.04739E-5
 1.25100E+0, 7.04739E-5
 1.26000E+0, 6.73506E-5
 1.26900E+0, 7.04739E-5
 1.27800E+0, 7.04739E-5
 1.28700E+0, 7.04739E-5
 1.29600E+0, 7.04739E-5
 1.30500E+0, 7.04739E-5
 1.31400E+0, 7.04739E-5
 1.32300E+0, 7.04739E-5
 1.33200E+0, 7.04739E-5
 1.34100E+0, 7.04739E-5
 1.35000E+0, 7.04739E-5
 1.35900E+0, 7.04739E-5
 1.36800E+0, 7.04739E-5
 1.37700E+0, 7.04739E-5
 1.38600E+0, 7.04739E-5
 1.39500E+0, 7.04739E-5
 1.40400E+0, 7.04739E-5
 1.41300E+0, 7.04739E-5
 1.42200E+0, 7.04739E-5
 1.43100E+0, 7.04739E-5
 1.44000E+0, 7.04739E-5
 1.44900E+0, 7.04739E-5
 1.45800E+0, 7.04739E-5
 1.46700E+0, 7.04739E-5
 1.47600E+0, 7.04739E-5
 1.48500E+0, 7.04739E-5
 1.49400E+0, 7.04739E-5
 1.50300E+0, 7.04739E-5
 1.51200E+0, 7.04739E-5
 1.52100E+0, 7.04739E-5
 1.53000E+0, 7.04739E-5
 1.53900E+0, 7.04739E-5
 1.54800E+0, 7.04739E-5
 1.55700E+0, 7.04739E-5
 1.56600E+0, 7.04739E-5
 1.57500E+0, 7.04739E-5
 1.58400E+0, 7.04739E-5
 1.59300E+0, 7.04739E-5
 1.60200E+0, 7.04739E-5
 1.61100E+0, 7.04739E-5
 1.62000E+0, 7.04739E-5
 1.62900E+0, 7.04739E-5
 1.63800E+0, 7.04739E-5
 1.64700E+0, 7.04739E-5
 1.65600E+0, 7.04739E-5
 1.66500E+0, 7.04739E-5
 1.67400E+0, 7.04739E-5
 1.68300E+0, 7.04739E-5
 1.69200E+0, 7.04739E-5
 1.70100E+0, 7.04739E-5
 1.71000E+0, 7.04739E-5
 1.71900E+0, 7.04739E-5
 1.72800E+0, 7.04739E-5
 1.73700E+0, 7.04739E-5
 1.74600E+0, 7.35971E-5
 1.75500E+0, 7.04739E-5
 1.76400E+0, 7.35971E-5
 1.77300E+0, 7.35971E-5
 1.78200E+0, 7.35971E-5
 1.79100E+0, 7.04739E-5
 1.80000E+0, 7.04739E-5
 1.80900E+0, 7.35971E-5
 1.81800E+0, 7.04739E-5
 1.82700E+0, 7.35971E-5
 1.83600E+0, 7.67203E-5
 1.84500E+0, 7.67203E-5
 1.85400E+0, 7.04739E-5
 1.86300E+0, 7.35971E-5
 1.87200E+0, 7.98436E-5
 1.88100E+0, 7.98436E-5
 1.89000E+0, 7.67203E-5
 1.89900E+0, 7.98436E-5
 1.90800E+0, 7.35971E-5
 1.91700E+0, 7.98436E-5
 1.92600E+0, 7.67203E-5
 1.93500E+0, 7.67203E-5
 1.94400E+0, 7.98436E-5
 1.95300E+0, 7.67203E-5
 1.96200E+0, 7.98436E-5
 1.97100E+0, 8.29668E-5
 1.98000E+0, 8.60900E-5
 1.98900E+0, 8.29668E-5
 1.99800E+0, 7.67203E-5
 2.00700E+0, 7.98436E-5
 2.01600E+0, 8.60900E-5
 2.02500E+0, 7.98436E-5
 2.03400E+0, 8.60900E-5
 2.04300E+0, 8.29668E-5
 2.05200E+0, 8.60900E-5
 2.06100E+0, 8.60900E-5
 2.07000E+0, 8.60900E-5
 2.07900E+0, 8.60900E-5
 2.08800E+0, 8.60900E-5
 2.09700E+0, 8.60900E-5
 2.10600E+0, 8.60900E-5
 2.11500E+0, 8.60900E-5
 2.12400E+0, 8.60900E-5
 2.13300E+0, 8.60900E-5
 2.14200E+0, 8.60900E-5
 2.15100E+0, 8.60900E-5
 2.16000E+0, 8.60900E-5
 2.16900E+0, 8.60900E-5
 2.17800E+0, 8.60900E-5
 2.18700E+0, 8.60900E-5
 2.19600E+0, 8.60900E-5
 2.20500E+0, 8.60900E-5
 2.21400E+0, 8.60900E-5
 2.22300E+0, 8.60900E-5
 2.23200E+0, 8.60900E-5
 2.24100E+0, 8.60900E-5
 2.25000E+0, 8.60900E-5
 2.25900E+0, 8.60900E-5
 2.26800E+0, 8.60900E-5
 2.27700E+0, 8.60900E-5
 2.28600E+0, 8.60900E-5
 2.29500E+0, 8.60900E-5
 2.30400E+0, 8.60900E-5
 2.31300E+0, 8.60900E-5
 2.32200E+0, 8.60900E-5
 2.33100E+0, 8.60900E-5
 2.34000E+0, 8.60900E-5
 2.34900E+0, 8.60900E-5
 2.35800E+0, 8.60900E-5
 2.36700E+0, 8.60900E-5
 2.37600E+0, 8.60900E-5
 2.38500E+0, 8.60900E-5
 2.39400E+0, 8.60900E-5
 2.40300E+0, 8.60900E-5
 2.41200E+0, 8.60900E-5
 2.42100E+0, 8.60900E-5
 2.43000E+0, 8.60900E-5
 2.43900E+0, 8.60900E-5
 2.44800E+0, 8.60900E-5
 2.45700E+0, 8.60900E-5
 2.46600E+0, 8.60900E-5
 2.47500E+0, 8.60900E-5
 2.48400E+0, 8.92133E-5
 2.49300E+0, 8.92133E-5
 2.50200E+0, 8.60900E-5
 2.51100E+0, 8.92133E-5
 2.52000E+0, 8.60900E-5
 2.52900E+0, 8.92133E-5
 2.53800E+0, 9.23365E-5
 2.54700E+0, 9.23365E-5
 2.55600E+0, 9.54598E-5
 2.56500E+0, 9.54598E-5
 2.57400E+0, 9.54598E-5
 2.58300E+0, 9.85830E-5
 2.59200E+0, 9.85830E-5
 2.60100E+0, 9.23365E-5
 2.61000E+0, 1.01706E-4
 2.61900E+0, 9.85830E-5
 2.62800E+0, 1.01706E-4
 2.63700E+0, 1.01706E-4
 2.64600E+0, 1.01706E-4
 2.65500E+0, 9.85830E-5
 2.66400E+0, 1.01706E-4
 2.67300E+0, 1.01706E-4
 2.68200E+0, 1.01706E-4
 2.69100E+0, 1.01706E-4
 2.70000E+0, 1.01706E-4
 2.70900E+0, 1.01706E-4
 2.71800E+0, 1.01706E-4
 2.72700E+0, 1.01706E-4
 2.73600E+0, 1.01706E-4
 2.74500E+0, 1.01706E-4
 2.75400E+0, 1.01706E-4
 2.76300E+0, 1.01706E-4
 2.77200E+0, 1.01706E-4
 2.78100E+0, 1.01706E-4
 2.79000E+0, 1.01706E-4
 2.79900E+0, 1.01706E-4
 2.80800E+0, 1.01706E-4
 2.81700E+0, 1.01706E-4
 2.82600E+0, 1.01706E-4
 2.83500E+0, 1.01706E-4
 2.84400E+0, 1.01706E-4
 2.85300E+0, 1.01706E-4
 2.86200E+0, 1.01706E-4
 2.87100E+0, 1.01706E-4
 2.88000E+0, 1.01706E-4
 2.88900E+0, 1.07953E-4
 2.89800E+0, 1.01706E-4
 2.90700E+0, 1.17322E-4
 2.91600E+0, 1.17322E-4
 2.92500E+0, 1.17322E-4
 2.93400E+0, 1.23569E-4
 2.94300E+0, 1.26692E-4
 2.95200E+0, 1.23569E-4
 2.96100E+0, 1.29815E-4
 2.97000E+0, 1.26692E-4
 2.97900E+0, 1.29815E-4
 2.98800E+0, 1.32939E-4
 2.99700E+0, 1.32939E-4
 3.00600E+0, 1.32939E-4
 3.01500E+0, 1.32939E-4
 3.02400E+0, 1.32939E-4
 3.03300E+0, 1.32939E-4
 3.04200E+0, 1.32939E-4
 3.05100E+0, 1.32939E-4
 3.06000E+0, 1.32939E-4
 3.06900E+0, 1.32939E-4
 3.07800E+0, 1.32939E-4
 3.08700E+0, 1.32939E-4
 3.09600E+0, 1.32939E-4
 3.10500E+0, 1.32939E-4
 3.11400E+0, 1.32939E-4
 3.12300E+0, 1.32939E-4
 3.13200E+0, 1.32939E-4
 3.14100E+0, 1.32939E-4
 3.15000E+0, 1.32939E-4
 3.15900E+0, 1.32939E-4
 3.16800E+0, 1.32939E-4
 3.17700E+0, 1.32939E-4
 3.18600E+0, 1.32939E-4
 3.19500E+0, 1.32939E-4
 3.20400E+0, 1.39185E-4
 3.21300E+0, 1.39185E-4
 3.22200E+0, 1.39185E-4
 3.23100E+0, 1.39185E-4
 3.24000E+0, 1.45432E-4
 3.24900E+0, 1.48555E-4
 3.25800E+0, 1.45432E-4
 3.26700E+0, 1.45432E-4
 3.27600E+0, 1.48555E-4
 3.28500E+0, 1.48555E-4
 3.29400E+0, 1.48555E-4
 3.30300E+0, 1.48555E-4
 3.31200E+0, 1.48555E-4
 3.32100E+0, 1.48555E-4
 3.33000E+0, 1.48555E-4
 3.33900E+0, 1.48555E-4
 3.34800E+0, 1.48555E-4
 3.35700E+0, 1.48555E-4
 3.36600E+0, 1.48555E-4
 3.37500E+0, 1.48555E-4
 3.38400E+0, 1.48555E-4
 3.39300E+0, 1.48555E-4
 3.40200E+0, 1.48555E-4
 3.41100E+0, 1.48555E-4
 3.42000E+0, 1.48555E-4
 3.42900E+0, 1.48555E-4
 3.43800E+0, 1.48555E-4
 3.44700E+0, 1.48555E-4
 3.45600E+0, 1.48555E-4
 3.46500E+0, 1.48555E-4
 3.47400E+0, 1.48555E-4
 3.48300E+0, 1.48555E-4
 3.49200E+0, 1.48555E-4
 3.50100E+0, 1.57925E-4
 3.51000E+0, 1.54801E-4
 3.51900E+0, 1.57925E-4
 3.52800E+0, 1.61048E-4
 3.53700E+0, 1.64171E-4
 3.54600E+0, 1.64171E-4
 3.55500E+0, 1.64171E-4
 3.56400E+0, 1.64171E-4
 3.57300E+0, 1.64171E-4
 3.58200E+0, 1.64171E-4
 3.59100E+0, 1.64171E-4
 3.60000E+0, 1.64171E-4
 3.60900E+0, 1.64171E-4
 3.61800E+0, 1.64171E-4
 3.62700E+0, 1.64171E-4
 3.63600E+0, 1.64171E-4
 3.64500E+0, 1.64171E-4
 3.65400E+0, 1.64171E-4
 3.66300E+0, 1.67294E-4
 3.67200E+0, 1.67294E-4
 3.68100E+0, 1.67294E-4
 3.69000E+0, 1.70417E-4
 3.69900E+0, 1.79787E-4
 3.70800E+0, 1.92280E-4
 3.71700E+0, 1.82910E-4
 3.72600E+0, 1.95403E-4
 3.73500E+0, 1.92280E-4
 3.74400E+0, 1.92280E-4
 3.75300E+0, 1.95403E-4
 3.76200E+0, 1.95403E-4
 3.77100E+0, 1.95403E-4
 3.78000E+0, 1.95403E-4
 3.78900E+0, 1.95403E-4
 3.79800E+0, 1.95403E-4
 3.80700E+0, 1.95403E-4
 3.81600E+0, 1.95403E-4
 3.82500E+0, 1.95403E-4
 3.83400E+0, 1.95403E-4
 3.84300E+0, 1.95403E-4
 3.85200E+0, 1.98527E-4
 3.86100E+0, 1.98527E-4
 3.87000E+0, 2.04773E-4
 3.87900E+0, 2.01650E-4
 3.88800E+0, 2.04773E-4
 3.89700E+0, 2.04773E-4
 3.90600E+0, 2.04773E-4
 3.91500E+0, 2.07896E-4
 3.92400E+0, 2.11020E-4
 3.93300E+0, 2.07896E-4
 3.94200E+0, 2.11020E-4
 3.95100E+0, 2.11020E-4
 3.96000E+0, 2.11020E-4
 3.96900E+0, 2.11020E-4
 3.97800E+0, 2.11020E-4
 3.98700E+0, 2.11020E-4
 3.99600E+0, 2.11020E-4
 4.00500E+0, 2.11020E-4
 4.01400E+0, 2.11020E-4
 4.02300E+0, 2.11020E-4
 4.03200E+0, 2.17266E-4
 4.04100E+0, 2.11020E-4
 4.05000E+0, 2.14143E-4
 4.05900E+0, 2.17266E-4
 4.06800E+0, 2.23512E-4
 4.07700E+0, 2.26636E-4
 4.08600E+0, 2.26636E-4
 4.09500E+0, 2.26636E-4
 4.10400E+0, 2.26636E-4
 4.11300E+0, 2.26636E-4
 4.12200E+0, 2.26636E-4
 4.13100E+0, 2.29759E-4
 4.14000E+0, 2.32882E-4
 4.14900E+0, 2.26636E-4
 4.15800E+0, 2.26636E-4
 4.16700E+0, 2.26636E-4
 4.17600E+0, 2.39129E-4
 4.18500E+0, 2.39129E-4
 4.19400E+0, 2.54745E-4
 4.20300E+0, 2.51622E-4
 4.21200E+0, 2.54745E-4
 4.22100E+0, 2.54745E-4
 4.23000E+0, 2.54745E-4
 4.23900E+0, 2.57868E-4
 4.24800E+0, 2.57868E-4
 4.25700E+0, 2.57868E-4
 4.26600E+0, 2.57868E-4
 4.27500E+0, 2.57868E-4
 4.28400E+0, 2.57868E-4
 4.29300E+0, 2.57868E-4
 4.30200E+0, 2.57868E-4
 4.31100E+0, 2.60991E-4
 4.32000E+0, 2.64115E-4
 4.32900E+0, 2.70361E-4
 4.33800E+0, 2.73484E-4
 4.34700E+0, 2.73484E-4
 4.35600E+0, 2.70361E-4
 4.36500E+0, 2.70361E-4
 4.37400E+0, 2.73484E-4
 4.38300E+0, 2.73484E-4
 4.39200E+0, 2.73484E-4
 4.40100E+0, 2.73484E-4
 4.41000E+0, 2.73484E-4
 4.41900E+0, 2.73484E-4
 4.42800E+0, 2.73484E-4
 4.43700E+0, 2.73484E-4
 4.44600E+0, 2.76608E-4
 4.45500E+0, 2.79731E-4
 4.46400E+0, 2.82854E-4
 4.47300E+0, 2.85977E-4
 4.48200E+0, 2.89100E-4
 4.49100E+0, 2.89100E-4
 4.50000E+0, 2.89100E-4
 4.50900E+0, 2.89100E-4
 4.51800E+0, 2.92224E-4
 4.52700E+0, 2.95347E-4
 4.53600E+0, 2.98470E-4
 4.54500E+0, 3.04717E-4
 4.55400E+0, 3.04717E-4
 4.56300E+0, 3.10963E-4
 4.57200E+0, 3.20333E-4
 4.58100E+0, 3.20333E-4
 4.59000E+0, 3.20333E-4
 4.59900E+0, 3.17210E-4
 4.60800E+0, 3.20333E-4
 4.61700E+0, 3.20333E-4
 4.62600E+0, 3.20333E-4
 4.63500E+0, 3.20333E-4
 4.64400E+0, 3.20333E-4
 4.65300E+0, 3.26579E-4
 4.66200E+0, 3.23456E-4
 4.67100E+0, 3.29703E-4
 4.68000E+0, 3.35949E-4
 4.68900E+0, 3.35949E-4
 4.69800E+0, 3.35949E-4
 4.70700E+0, 3.35949E-4
 4.71600E+0, 3.35949E-4
 4.72500E+0, 3.35949E-4
 4.73400E+0, 3.35949E-4
 4.74300E+0, 3.35949E-4
 4.75200E+0, 3.35949E-4
 4.76100E+0, 3.42196E-4
 4.77000E+0, 3.45319E-4
 4.77900E+0, 3.48442E-4
 4.78800E+0, 3.48442E-4
 4.79700E+0, 3.51565E-4
 4.80600E+0, 3.48442E-4
 4.81500E+0, 3.51565E-4
 4.82400E+0, 3.57812E-4
 4.83300E+0, 3.60935E-4
 4.84200E+0, 3.57812E-4
 4.85100E+0, 3.70305E-4
 4.86000E+0, 3.76551E-4
 4.86900E+0, 3.79674E-4
 4.87800E+0, 3.79674E-4
 4.88700E+0, 3.82798E-4
 4.89600E+0, 3.82798E-4
 4.90500E+0, 3.82798E-4
 4.91400E+0, 3.82798E-4
 4.92300E+0, 3.85921E-4
 4.93200E+0, 3.85921E-4
 4.94100E+0, 3.82798E-4
 4.95000E+0, 3.92167E-4
 4.95900E+0, 3.98414E-4
 4.96800E+0, 3.98414E-4
 4.97700E+0, 3.98414E-4
 4.98600E+0, 3.95291E-4
 4.99500E+0, 3.98414E-4
 5.00400E+0, 3.98414E-4
 5.01300E+0, 3.98414E-4
 5.02200E+0, 4.01537E-4
 5.03100E+0, 4.07784E-4
 5.04000E+0, 4.04660E-4
 5.04900E+0, 4.10907E-4
 5.05800E+0, 4.10907E-4
 5.06700E+0, 4.14030E-4
 5.07600E+0, 4.17153E-4
 5.08500E+0, 4.26523E-4
 5.09400E+0, 4.29646E-4
 5.10300E+0, 4.35893E-4
 5.11200E+0, 4.42139E-4
 5.12100E+0, 4.42139E-4
 5.13000E+0, 4.42139E-4
 5.13900E+0, 4.45262E-4
 5.14800E+0, 4.45262E-4
 5.15700E+0, 4.45262E-4
 5.16600E+0, 4.45262E-4
 5.17500E+0, 4.48386E-4
 5.18400E+0, 4.51509E-4
 5.19300E+0, 4.57755E-4
 5.20200E+0, 4.54632E-4
 5.21100E+0, 4.57755E-4
 5.22000E+0, 4.60879E-4
 5.22900E+0, 4.60879E-4
 5.23800E+0, 4.60879E-4
 5.24700E+0, 4.64002E-4
 5.25600E+0, 4.67125E-4
 5.26500E+0, 4.70248E-4
 5.27400E+0, 4.76495E-4
 5.28300E+0, 4.76495E-4
 5.29200E+0, 4.85864E-4
 5.30100E+0, 4.82741E-4
 5.31000E+0, 4.85864E-4
 5.31900E+0, 4.95234E-4
 5.32800E+0, 5.01481E-4
 5.33700E+0, 5.07727E-4
 5.34600E+0, 5.07727E-4
 5.35500E+0, 5.07727E-4
 5.36400E+0, 5.07727E-4
 5.37300E+0, 5.10850E-4
 5.38200E+0, 5.13974E-4
 5.39100E+0, 5.20220E-4
 5.40000E+0, 5.23343E-4
 5.40900E+0, 5.23343E-4
 5.41800E+0, 5.23343E-4
 5.42700E+0, 5.23343E-4
 5.43600E+0, 5.23343E-4
 5.44500E+0, 5.23343E-4
 5.45400E+0, 5.29590E-4
 5.46300E+0, 5.35836E-4
 5.47200E+0, 5.42083E-4
 5.48100E+0, 5.42083E-4
 5.49000E+0, 5.51452E-4
 5.49900E+0, 5.54576E-4
 5.50800E+0, 5.57699E-4
 5.51700E+0, 5.63945E-4
 5.52600E+0, 5.67069E-4
 5.53500E+0, 5.70192E-4
 5.54400E+0, 5.70192E-4
 5.55300E+0, 5.70192E-4
 5.56200E+0, 5.70192E-4
 5.57100E+0, 5.79562E-4
 5.58000E+0, 5.76438E-4
 5.58900E+0, 5.82685E-4
 5.59800E+0, 5.85808E-4
 5.60700E+0, 5.85808E-4
 5.61600E+0, 5.85808E-4
 5.62500E+0, 5.92055E-4
 5.63400E+0, 5.92055E-4
 5.64300E+0, 5.98301E-4
 5.65200E+0, 6.07671E-4
 5.66100E+0, 6.13917E-4
 5.67000E+0, 6.13917E-4
 5.67900E+0, 6.17040E-4
 5.68800E+0, 6.29533E-4
 5.69700E+0, 6.32657E-4
 5.70600E+0, 6.32657E-4
 5.71500E+0, 6.32657E-4
 5.72400E+0, 6.32657E-4
 5.73300E+0, 6.32657E-4
 5.74200E+0, 6.42026E-4
 5.75100E+0, 6.45150E-4
 5.76000E+0, 6.48273E-4
 5.76900E+0, 6.48273E-4
 5.77800E+0, 6.48273E-4
 5.78700E+0, 6.54519E-4
 5.79600E+0, 6.57643E-4
 5.80500E+0, 6.67012E-4
 5.81400E+0, 6.67012E-4
 5.82300E+0, 6.76382E-4
 5.83200E+0, 6.82628E-4
 5.84100E+0, 6.88875E-4
 5.85000E+0, 6.91998E-4
 5.85900E+0, 6.95121E-4
 5.86800E+0, 6.95121E-4
 5.87700E+0, 6.95121E-4
 5.88600E+0, 7.01368E-4
 5.89500E+0, 7.04491E-4
 5.90400E+0, 7.10738E-4
 5.91300E+0, 7.10738E-4
 5.92200E+0, 7.10738E-4
 5.93100E+0, 7.10738E-4
 5.94000E+0, 7.16984E-4
 5.94900E+0, 7.26354E-4
 5.95800E+0, 7.29477E-4
 5.96700E+0, 7.32600E-4
 5.97600E+0, 7.41970E-4
 5.98500E+0, 7.48216E-4
 5.99400E+0, 7.54463E-4
 6.00300E+0, 7.57586E-4
 6.01200E+0, 7.57586E-4
 6.02100E+0, 7.57586E-4
 6.03000E+0, 7.63833E-4
 6.03900E+0, 7.70079E-4
 6.04800E+0, 7.73202E-4
 6.05700E+0, 7.73202E-4
 6.06600E+0, 7.73202E-4
 6.07500E+0, 7.82572E-4
 6.08400E+0, 7.88818E-4
 6.09300E+0, 7.91942E-4
 6.10200E+0, 8.01311E-4
 6.11100E+0, 8.07558E-4
 6.12000E+0, 8.13804E-4
 6.12900E+0, 8.20051E-4
 6.13800E+0, 8.20051E-4
 6.14700E+0, 8.23174E-4
 6.15600E+0, 8.20051E-4
 6.16500E+0, 8.35667E-4
 6.17400E+0, 8.35667E-4
 6.18300E+0, 8.35667E-4
 6.19200E+0, 8.35667E-4
 6.20100E+0, 8.45037E-4
 6.21000E+0, 8.54406E-4
 6.21900E+0, 8.60653E-4
 6.22800E+0, 8.66899E-4
 6.23700E+0, 8.73146E-4
 6.24600E+0, 8.79392E-4
 6.25500E+0, 8.82516E-4
 6.26400E+0, 8.82516E-4
 6.27300E+0, 8.82516E-4
 6.28200E+0, 8.91885E-4
 6.29100E+0, 8.98132E-4
 6.30000E+0, 8.98132E-4
 6.30900E+0, 8.98132E-4
 6.31800E+0, 9.10625E-4
 6.32700E+0, 9.13748E-4
 6.33600E+0, 9.23118E-4
 6.34500E+0, 9.26241E-4
 6.35400E+0, 9.35611E-4
 6.36300E+0, 9.44980E-4
 6.37200E+0, 9.44980E-4
 6.38100E+0, 9.44980E-4
 6.39000E+0, 9.54350E-4
 6.39900E+0, 9.57473E-4
 6.40800E+0, 9.60597E-4
 6.41700E+0, 9.60597E-4
 6.42600E+0, 9.63720E-4
 6.43500E+0, 9.73090E-4
 6.44400E+0, 9.82459E-4
 6.45300E+0, 9.91829E-4
 6.46200E+0, 1.00120E-3
 6.47100E+0, 1.00432E-3
 6.48000E+0, 1.00745E-3
 6.48900E+0, 1.00745E-3
 6.49800E+0, 1.01369E-3
 6.50700E+0, 1.02306E-3
 6.51600E+0, 1.02306E-3
 6.52500E+0, 1.02306E-3
 6.53400E+0, 1.03555E-3
 6.54300E+0, 1.04180E-3
 6.55200E+0, 1.04492E-3
 6.56100E+0, 1.05742E-3
 6.57000E+0, 1.06679E-3
 6.57900E+0, 1.06679E-3
 6.58800E+0, 1.06991E-3
 6.59700E+0, 1.07616E-3
 6.60600E+0, 1.08553E-3
 6.61500E+0, 1.08553E-3
 6.62400E+0, 1.08865E-3
 6.63300E+0, 1.09490E-3
 6.64200E+0, 1.10427E-3
 6.65100E+0, 1.11364E-3
 6.66000E+0, 1.12613E-3
 6.66900E+0, 1.12925E-3
 6.67800E+0, 1.13237E-3
 6.68700E+0, 1.13862E-3
 6.69600E+0, 1.14174E-3
 6.70500E+0, 1.14799E-3
 6.71400E+0, 1.14799E-3
 6.72300E+0, 1.14799E-3
 6.73200E+0, 1.16048E-3
 6.74100E+0, 1.17298E-3
 6.75000E+0, 1.18859E-3
 6.75900E+0, 1.19172E-3
 6.76800E+0, 1.19484E-3
 6.77700E+0, 1.19796E-3
 6.78600E+0, 1.20733E-3
 6.79500E+0, 1.21046E-3
 6.80400E+0, 1.21046E-3
 6.81300E+0, 1.21670E-3
 6.82200E+0, 1.22607E-3
 6.83100E+0, 1.23544E-3
 6.84000E+0, 1.24481E-3
 6.84900E+0, 1.25418E-3
 6.85800E+0, 1.25730E-3
 6.86700E+0, 1.26980E-3
 6.87600E+0, 1.26980E-3
 6.88500E+0, 1.27292E-3
 6.89400E+0, 1.27917E-3
 6.90300E+0, 1.28229E-3
 6.91200E+0, 1.28854E-3
 6.92100E+0, 1.30728E-3
 6.93000E+0, 1.31665E-3
 6.93900E+0, 1.31977E-3
 6.94800E+0, 1.32914E-3
 6.95700E+0, 1.33539E-3
 6.96600E+0, 1.33539E-3
 6.97500E+0, 1.34163E-3
 6.98400E+0, 1.34788E-3
 6.99300E+0, 1.35412E-3
 7.00200E+0, 1.36662E-3
 7.01100E+0, 1.37911E-3
 7.02000E+0, 1.38536E-3
 7.02900E+0, 1.39160E-3
 7.03800E+0, 1.39785E-3
 7.04700E+0, 1.39785E-3
 7.05600E+0, 1.40722E-3
 7.06500E+0, 1.41034E-3
 7.07400E+0, 1.42596E-3
 7.08300E+0, 1.43533E-3
 7.09200E+0, 1.44158E-3
 7.10100E+0, 1.45094E-3
 7.11000E+0, 1.45719E-3
 7.11900E+0, 1.46031E-3
 7.12800E+0, 1.46656E-3
 7.13700E+0, 1.47281E-3
 7.14600E+0, 1.47593E-3
 7.15500E+0, 1.50092E-3
 7.16400E+0, 1.50716E-3
 7.17300E+0, 1.50716E-3
 7.18200E+0, 1.51966E-3
 7.19100E+0, 1.52278E-3
 7.20000E+0, 1.52590E-3
 7.20900E+0, 1.53840E-3
 7.21800E+0, 1.53840E-3
 7.22700E+0, 1.56338E-3
 7.23600E+0, 1.56650E-3
 7.24500E+0, 1.57587E-3
 7.25400E+0, 1.58212E-3
 7.26300E+0, 1.58524E-3
 7.27200E+0, 1.59461E-3
 7.28100E+0, 1.59774E-3
 7.29000E+0, 1.61023E-3
 7.29900E+0, 1.62585E-3
 7.30800E+0, 1.63209E-3
 7.31700E+0, 1.64459E-3
 7.32600E+0, 1.64771E-3
 7.33500E+0, 1.64771E-3
 7.34400E+0, 1.66020E-3
 7.35300E+0, 1.66020E-3
 7.36200E+0, 1.68206E-3
 7.37100E+0, 1.69143E-3
 7.38000E+0, 1.70705E-3
 7.38900E+0, 1.71017E-3
 7.39800E+0, 1.71330E-3
 7.40700E+0, 1.72267E-3
 7.41600E+0, 1.72891E-3
 7.42500E+0, 1.73516E-3
 7.43400E+0, 1.75390E-3
 7.44300E+0, 1.76952E-3
 7.45200E+0, 1.77264E-3
 7.46100E+0, 1.77576E-3
 7.47000E+0, 1.78201E-3
 7.47900E+0, 1.79138E-3
 7.48800E+0, 1.80387E-3
 7.49700E+0, 1.81324E-3
 7.50600E+0, 1.83198E-3
 7.51500E+0, 1.83510E-3
 7.52400E+0, 1.84447E-3
 7.53300E+0, 1.84760E-3
 7.54200E+0, 1.86009E-3
 7.55100E+0, 1.86634E-3
 7.56000E+0, 1.88507E-3
 7.56900E+0, 1.89444E-3
 7.57800E+0, 1.90694E-3
 7.58700E+0, 1.91006E-3
 7.59600E+0, 1.91318E-3
 7.60500E+0, 1.92568E-3
 7.61400E+0, 1.94129E-3
 7.62300E+0, 1.95691E-3
 7.63200E+0, 1.96316E-3
 7.64100E+0, 1.97253E-3
 7.65000E+0, 1.97565E-3
 7.65900E+0, 1.98502E-3
 7.66800E+0, 1.99126E-3
 7.67700E+0, 2.01625E-3
 7.68600E+0, 2.02250E-3
 7.69500E+0, 2.03499E-3
 7.70400E+0, 2.03811E-3
 7.71300E+0, 2.04748E-3
 7.72200E+0, 2.05373E-3
 7.73100E+0, 2.07559E-3
 7.74000E+0, 2.08496E-3
 7.74900E+0, 2.09746E-3
 7.75800E+0, 2.10058E-3
 7.76700E+0, 2.11307E-3
 7.77600E+0, 2.11619E-3
 7.78500E+0, 2.14118E-3
 7.79400E+0, 2.15680E-3
 7.80300E+0, 2.16304E-3
 7.81200E+0, 2.16929E-3
 7.82100E+0, 2.17866E-3
 7.83000E+0, 2.18803E-3
 7.83900E+0, 2.19740E-3
 7.84800E+0, 2.21926E-3
 7.85700E+0, 2.22863E-3
 7.86600E+0, 2.23800E-3
 7.87500E+0, 2.24112E-3
 7.88400E+0, 2.25362E-3
 7.89300E+0, 2.27548E-3
 7.90200E+0, 2.28485E-3
 7.91100E+0, 2.29422E-3
 7.92000E+0, 2.30359E-3
 7.92900E+0, 2.31608E-3
 7.93800E+0, 2.31920E-3
 7.94700E+0, 2.34107E-3
 7.95600E+0, 2.35668E-3
 7.96500E+0, 2.36293E-3
 7.97400E+0, 2.37230E-3
 7.98300E+0, 2.37855E-3
 7.99200E+0, 2.39729E-3
 8.00100E+0, 2.41290E-3
 8.01000E+0, 2.42852E-3
 8.01900E+0, 2.43476E-3
 8.02800E+0, 2.44101E-3
 8.03700E+0, 2.45663E-3
 8.04600E+0, 2.47224E-3
 8.05500E+0, 2.48786E-3
 8.06400E+0, 2.50348E-3
 8.07300E+0, 2.50348E-3
 8.08200E+0, 2.51909E-3
 8.09100E+0, 2.53783E-3
 8.10000E+0, 2.55032E-3
 8.10900E+0, 2.55969E-3
 8.11800E+0, 2.56906E-3
 8.12700E+0, 2.57843E-3
 8.13600E+0, 2.60030E-3
 8.14500E+0, 2.61279E-3
 8.15400E+0, 2.62841E-3
 8.16300E+0, 2.63778E-3
 8.17200E+0, 2.64402E-3
 8.18100E+0, 2.66588E-3
 8.19000E+0, 2.68150E-3
 8.19900E+0, 2.69087E-3
 8.20800E+0, 2.70336E-3
 8.21700E+0, 2.71273E-3
 8.22600E+0, 2.73460E-3
 8.23500E+0, 2.75021E-3
 8.24400E+0, 2.75646E-3
 8.25300E+0, 2.76895E-3
 8.26200E+0, 2.78457E-3
 8.27100E+0, 2.80331E-3
 8.28000E+0, 2.81580E-3
 8.28900E+0, 2.83142E-3
 8.29800E+0, 2.84079E-3
 8.30700E+0, 2.85016E-3
 8.31600E+0, 2.87514E-3
 8.32500E+0, 2.89076E-3
 8.33400E+0, 2.89700E-3
 8.34300E+0, 2.90950E-3
 8.35200E+0, 2.93448E-3
 8.36100E+0, 2.95010E-3
 8.37000E+0, 2.95635E-3
 8.37900E+0, 2.97196E-3
 8.38800E+0, 2.98133E-3
 8.39700E+0, 3.00007E-3
 8.40600E+0, 3.01881E-3
 8.41500E+0, 3.03443E-3
 8.42400E+0, 3.04380E-3
 8.43300E+0, 3.06254E-3
 8.44200E+0, 3.08127E-3
 8.45100E+0, 3.09689E-3
 8.46000E+0, 3.10626E-3
 8.46900E+0, 3.11875E-3
 8.47800E+0, 3.14062E-3
 8.48700E+0, 3.15936E-3
 8.49600E+0, 3.16560E-3
 8.50500E+0, 3.18122E-3
 8.51400E+0, 3.20308E-3
 8.52300E+0, 3.22182E-3
 8.53200E+0, 3.23119E-3
 8.54100E+0, 3.24368E-3
 8.55000E+0, 3.26242E-3
 8.55900E+0, 3.28429E-3
 8.56800E+0, 3.29990E-3
 8.57700E+0, 3.31239E-3
 8.58600E+0, 3.33113E-3
 8.59500E+0, 3.34987E-3
 8.60400E+0, 3.36237E-3
 8.61300E+0, 3.37798E-3
 8.62200E+0, 3.39360E-3
 8.63100E+0, 3.41546E-3
 8.64000E+0, 3.43108E-3
 8.64900E+0, 3.44357E-3
 8.65800E+0, 3.45606E-3
 8.66700E+0, 3.48417E-3
 8.67600E+0, 3.50291E-3
 8.68500E+0, 3.51540E-3
 8.69400E+0, 3.53102E-3
 8.70300E+0, 3.55288E-3
 8.71200E+0, 3.56538E-3
 8.72100E+0, 3.58099E-3
 8.73000E+0, 3.59973E-3
 8.73900E+0, 3.62784E-3
 8.74800E+0, 3.64346E-3
 8.75700E+0, 3.65283E-3
 8.76600E+0, 3.67781E-3
 8.77500E+0, 3.70280E-3
 8.78400E+0, 3.71217E-3
 8.79300E+0, 3.72154E-3
 8.80200E+0, 3.74652E-3
 8.81100E+0, 3.76839E-3
 8.82000E+0, 3.78400E-3
 8.82900E+0, 3.79962E-3
 8.83800E+0, 3.82461E-3
 8.84700E+0, 3.84647E-3
 8.85600E+0, 3.85896E-3
 8.86500E+0, 3.87458E-3
 8.87400E+0, 3.90581E-3
 8.88300E+0, 3.91206E-3
 8.89200E+0, 3.93704E-3
 8.90100E+0, 3.95266E-3
 8.91000E+0, 3.97764E-3
 8.91900E+0, 3.99326E-3
 8.92800E+0, 4.00263E-3
 8.93700E+0, 4.03386E-3
 8.94600E+0, 4.04948E-3
 8.95500E+0, 4.06822E-3
 8.96400E+0, 4.09320E-3
 8.97300E+0, 4.11819E-3
 8.98200E+0, 4.13068E-3
 8.99100E+0, 4.14318E-3
 9.00000E+0, 4.17753E-3
