Sweep (V)@Temporary,Measure (A)@Temporary
 0.00000E+0, 3.93154E-6
 5.00000E-3, 5.18082E-6
 1.00000E-2, 6.43010E-6
 1.50000E-2, 7.05474E-6
 2.00000E-2, 7.05474E-6
 2.50000E-2, 7.05474E-6
 3.00000E-2, 7.05474E-6
 3.50000E-2, 7.05474E-6
 4.00000E-2, 7.36706E-6
 4.50000E-2, 8.30402E-6
 5.00000E-2, 7.99170E-6
 5.50000E-2, 8.61634E-6
 6.00000E-2, 8.61634E-6
 6.50000E-2, 8.30402E-6
 7.00000E-2, 8.61634E-6
 7.50000E-2, 8.61634E-6
 8.00000E-2, 8.61634E-6
 8.50000E-2, 8.61634E-6
 9.00000E-2, 8.61634E-6
 9.50000E-2, 8.61634E-6
 1.00000E-1, 8.61634E-6
 1.05000E-1, 8.61634E-6
 1.10000E-1, 8.61634E-6
 1.15000E-1, 8.61634E-6
 1.20000E-1, 8.61634E-6
 1.25000E-1, 8.61634E-6
 1.30000E-1, 8.61634E-6
 1.35000E-1, 8.61634E-6
 1.40000E-1, 8.61634E-6
 1.45000E-1, 8.61634E-6
 1.50000E-1, 8.61634E-6
 1.55000E-1, 8.61634E-6
 1.60000E-1, 8.61634E-6
 1.65000E-1, 8.61634E-6
 1.70000E-1, 8.61634E-6
 1.75000E-1, 8.61634E-6
 1.80000E-1, 8.92866E-6
 1.85000E-1, 8.92866E-6
 1.90000E-1, 8.92866E-6
 1.95000E-1, 8.61634E-6
 2.00000E-1, 8.92866E-6
 2.05000E-1, 8.92866E-6
 2.10000E-1, 8.61634E-6
 2.15000E-1, 9.24098E-6
 2.20000E-1, 8.92866E-6
 2.25000E-1, 9.55331E-6
 2.30000E-1, 9.24098E-6
 2.35000E-1, 9.55331E-6
 2.40000E-1, 1.01779E-5
 2.45000E-1, 9.55331E-6
 2.50000E-1, 9.55331E-6
 2.55000E-1, 9.86563E-6
 2.60000E-1, 9.55331E-6
 2.65000E-1, 1.01779E-5
 2.70000E-1, 1.01779E-5
 2.75000E-1, 9.86563E-6
 2.80000E-1, 9.86563E-6
 2.85000E-1, 1.01779E-5
 2.90000E-1, 1.01779E-5
 2.95000E-1, 1.04903E-5
 3.00000E-1, 1.01779E-5
 3.05000E-1, 1.01779E-5
 3.10000E-1, 1.01779E-5
 3.15000E-1, 1.04903E-5
 3.20000E-1, 1.01779E-5
 3.25000E-1, 1.01779E-5
 3.30000E-1, 1.04903E-5
 3.35000E-1, 1.01779E-5
 3.40000E-1, 1.04903E-5
 3.45000E-1, 1.08026E-5
 3.50000E-1, 1.08026E-5
 3.55000E-1, 1.04903E-5
 3.60000E-1, 1.08026E-5
 3.65000E-1, 1.08026E-5
 3.70000E-1, 1.11149E-5
 3.75000E-1, 1.17395E-5
 3.80000E-1, 1.17395E-5
 3.85000E-1, 1.17395E-5
 3.90000E-1, 1.17395E-5
 3.95000E-1, 1.14272E-5
 4.00000E-1, 1.17395E-5
 4.05000E-1, 1.17395E-5
 4.10000E-1, 1.17395E-5
 4.15000E-1, 1.17395E-5
 4.20000E-1, 1.17395E-5
 4.25000E-1, 1.20519E-5
 4.30000E-1, 1.23642E-5
 4.35000E-1, 1.26765E-5
 4.40000E-1, 1.20519E-5
 4.45000E-1, 1.23642E-5
 4.50000E-1, 1.23642E-5
 4.55000E-1, 1.26765E-5
 4.60000E-1, 1.33012E-5
 4.65000E-1, 1.33012E-5
 4.70000E-1, 1.33012E-5
 4.75000E-1, 1.29888E-5
 4.80000E-1, 1.33012E-5
 4.85000E-1, 1.29888E-5
 4.90000E-1, 1.33012E-5
 4.95000E-1, 1.33012E-5
 5.00000E-1, 1.33012E-5
 5.05000E-1, 1.33012E-5
 5.10000E-1, 1.33012E-5
 5.15000E-1, 1.33012E-5
 5.20000E-1, 1.33012E-5
 5.25000E-1, 1.33012E-5
 5.30000E-1, 1.33012E-5
 5.35000E-1, 1.33012E-5
 5.40000E-1, 1.33012E-5
 5.45000E-1, 1.33012E-5
 5.50000E-1, 1.33012E-5
 5.55000E-1, 1.33012E-5
 5.60000E-1, 1.33012E-5
 5.65000E-1, 1.33012E-5
 5.70000E-1, 1.33012E-5
 5.75000E-1, 1.33012E-5
 5.80000E-1, 1.33012E-5
 5.85000E-1, 1.33012E-5
 5.90000E-1, 1.33012E-5
 5.95000E-1, 1.33012E-5
 6.00000E-1, 1.33012E-5
 6.05000E-1, 1.33012E-5
 6.10000E-1, 1.36135E-5
 6.15000E-1, 1.33012E-5
 6.20000E-1, 1.33012E-5
 6.25000E-1, 1.36135E-5
 6.30000E-1, 1.33012E-5
 6.35000E-1, 1.39258E-5
 6.40000E-1, 1.36135E-5
 6.45000E-1, 1.39258E-5
 6.50000E-1, 1.39258E-5
 6.55000E-1, 1.39258E-5
 6.60000E-1, 1.42381E-5
 6.65000E-1, 1.36135E-5
 6.70000E-1, 1.42381E-5
 6.75000E-1, 1.42381E-5
 6.80000E-1, 1.42381E-5
 6.85000E-1, 1.48628E-5
 6.90000E-1, 1.42381E-5
 6.95000E-1, 1.48628E-5
 7.00000E-1, 1.48628E-5
 7.05000E-1, 1.48628E-5
 7.10000E-1, 1.48628E-5
 7.15000E-1, 1.48628E-5
 7.20000E-1, 1.48628E-5
 7.25000E-1, 1.48628E-5
 7.30000E-1, 1.48628E-5
 7.35000E-1, 1.48628E-5
 7.40000E-1, 1.48628E-5
 7.45000E-1, 1.48628E-5
 7.50000E-1, 1.48628E-5
 7.55000E-1, 1.48628E-5
 7.60000E-1, 1.48628E-5
 7.65000E-1, 1.48628E-5
 7.70000E-1, 1.48628E-5
 7.75000E-1, 1.48628E-5
 7.80000E-1, 1.48628E-5
 7.85000E-1, 1.48628E-5
 7.90000E-1, 1.48628E-5
 7.95000E-1, 1.48628E-5
 8.00000E-1, 1.48628E-5
 8.05000E-1, 1.48628E-5
 8.10000E-1, 1.48628E-5
 8.15000E-1, 1.48628E-5
 8.20000E-1, 1.51751E-5
 8.25000E-1, 1.48628E-5
 8.30000E-1, 1.54874E-5
 8.35000E-1, 1.54874E-5
 8.40000E-1, 1.57997E-5
 8.45000E-1, 1.61120E-5
 8.50000E-1, 1.57997E-5
 8.55000E-1, 1.57997E-5
 8.60000E-1, 1.61120E-5
 8.65000E-1, 1.64244E-5
 8.70000E-1, 1.64244E-5
 8.75000E-1, 1.64244E-5
 8.80000E-1, 1.61120E-5
 8.85000E-1, 1.61120E-5
 8.90000E-1, 1.64244E-5
 8.95000E-1, 1.64244E-5
 9.00000E-1, 1.67367E-5
 9.05000E-1, 1.67367E-5
 9.10000E-1, 1.67367E-5
 9.15000E-1, 1.64244E-5
 9.20000E-1, 1.70490E-5
 9.25000E-1, 1.70490E-5
 9.30000E-1, 1.73613E-5
 9.35000E-1, 1.76736E-5
 9.40000E-1, 1.76736E-5
 9.45000E-1, 1.79860E-5
 9.50000E-1, 1.76736E-5
 9.55000E-1, 1.79860E-5
 9.60000E-1, 1.79860E-5
 9.65000E-1, 1.79860E-5
 9.70000E-1, 1.79860E-5
 9.75000E-1, 1.79860E-5
 9.80000E-1, 1.79860E-5
 9.85000E-1, 1.82983E-5
 9.90000E-1, 1.82983E-5
 9.95000E-1, 1.82983E-5
 1.00000E+0, 1.79860E-5
 1.00500E+0, 1.92352E-5
 1.01000E+0, 1.92352E-5
 1.01500E+0, 1.92352E-5
 1.02000E+0, 1.95476E-5
 1.02500E+0, 1.95476E-5
 1.03000E+0, 1.95476E-5
 1.03500E+0, 1.95476E-5
 1.04000E+0, 1.92352E-5
 1.04500E+0, 1.95476E-5
 1.05000E+0, 1.95476E-5
 1.05500E+0, 1.95476E-5
 1.06000E+0, 1.95476E-5
 1.06500E+0, 1.95476E-5
 1.07000E+0, 1.95476E-5
 1.07500E+0, 1.95476E-5
 1.08000E+0, 1.95476E-5
 1.08500E+0, 1.95476E-5
 1.09000E+0, 1.95476E-5
 1.09500E+0, 1.95476E-5
 1.10000E+0, 1.95476E-5
 1.10500E+0, 1.95476E-5
 1.11000E+0, 1.95476E-5
 1.11500E+0, 1.95476E-5
 1.12000E+0, 1.95476E-5
 1.12500E+0, 1.95476E-5
 1.13000E+0, 1.98599E-5
 1.13500E+0, 1.95476E-5
 1.14000E+0, 1.95476E-5
 1.14500E+0, 2.01722E-5
 1.15000E+0, 2.01722E-5
 1.15500E+0, 2.07968E-5
 1.16000E+0, 1.95476E-5
 1.16500E+0, 1.95476E-5
 1.17000E+0, 2.07968E-5
 1.17500E+0, 2.04845E-5
 1.18000E+0, 2.04845E-5
 1.18500E+0, 2.11092E-5
 1.19000E+0, 2.11092E-5
 1.19500E+0, 2.11092E-5
 1.20000E+0, 2.11092E-5
 1.20500E+0, 2.11092E-5
 1.21000E+0, 2.11092E-5
 1.21500E+0, 2.11092E-5
 1.22000E+0, 2.11092E-5
 1.22500E+0, 2.11092E-5
 1.23000E+0, 2.11092E-5
 1.23500E+0, 2.11092E-5
 1.24000E+0, 2.11092E-5
 1.24500E+0, 2.11092E-5
 1.25000E+0, 2.11092E-5
 1.25500E+0, 2.11092E-5
 1.26000E+0, 2.11092E-5
 1.26500E+0, 2.11092E-5
 1.27000E+0, 2.17338E-5
 1.27500E+0, 2.14215E-5
 1.28000E+0, 2.11092E-5
 1.28500E+0, 2.17338E-5
 1.29000E+0, 2.26708E-5
 1.29500E+0, 2.17338E-5
 1.30000E+0, 2.17338E-5
 1.30500E+0, 2.23584E-5
 1.31000E+0, 2.26708E-5
 1.31500E+0, 2.26708E-5
 1.32000E+0, 2.26708E-5
 1.32500E+0, 2.29831E-5
 1.33000E+0, 2.26708E-5
 1.33500E+0, 2.36077E-5
 1.34000E+0, 2.29831E-5
 1.34500E+0, 2.36077E-5
 1.35000E+0, 2.32954E-5
 1.35500E+0, 2.39201E-5
 1.36000E+0, 2.39201E-5
 1.36500E+0, 2.42324E-5
 1.37000E+0, 2.39201E-5
 1.37500E+0, 2.42324E-5
 1.38000E+0, 2.42324E-5
 1.38500E+0, 2.42324E-5
 1.39000E+0, 2.42324E-5
 1.39500E+0, 2.42324E-5
 1.40000E+0, 2.48570E-5
 1.40500E+0, 2.51693E-5
 1.41000E+0, 2.48570E-5
 1.41500E+0, 2.51693E-5
 1.42000E+0, 2.57940E-5
 1.42500E+0, 2.57940E-5
 1.43000E+0, 2.57940E-5
 1.43500E+0, 2.57940E-5
 1.44000E+0, 2.57940E-5
 1.44500E+0, 2.57940E-5
 1.45000E+0, 2.57940E-5
 1.45500E+0, 2.57940E-5
 1.46000E+0, 2.57940E-5
 1.46500E+0, 2.57940E-5
 1.47000E+0, 2.57940E-5
 1.47500E+0, 2.57940E-5
 1.48000E+0, 2.57940E-5
 1.48500E+0, 2.57940E-5
 1.49000E+0, 2.57940E-5
 1.49500E+0, 2.57940E-5
 1.50000E+0, 2.57940E-5
 1.50500E+0, 2.61063E-5
 1.51000E+0, 2.61063E-5
 1.51500E+0, 2.61063E-5
 1.52000E+0, 2.61063E-5
 1.52500E+0, 2.61063E-5
 1.53000E+0, 2.64186E-5
 1.53500E+0, 2.64186E-5
 1.54000E+0, 2.70433E-5
 1.54500E+0, 2.70433E-5
 1.55000E+0, 2.73556E-5
 1.55500E+0, 2.73556E-5
 1.56000E+0, 2.73556E-5
 1.56500E+0, 2.73556E-5
 1.57000E+0, 2.73556E-5
 1.57500E+0, 2.73556E-5
 1.58000E+0, 2.73556E-5
 1.58500E+0, 2.73556E-5
 1.59000E+0, 2.73556E-5
 1.59500E+0, 2.73556E-5
 1.60000E+0, 2.73556E-5
 1.60500E+0, 2.73556E-5
 1.61000E+0, 2.76679E-5
 1.61500E+0, 2.73556E-5
 1.62000E+0, 2.76679E-5
 1.62500E+0, 2.79802E-5
 1.63000E+0, 2.86049E-5
 1.63500E+0, 2.89172E-5
 1.64000E+0, 2.89172E-5
 1.64500E+0, 2.89172E-5
 1.65000E+0, 2.89172E-5
 1.65500E+0, 2.95418E-5
 1.66000E+0, 3.01665E-5
 1.66500E+0, 3.01665E-5
 1.67000E+0, 3.01665E-5
 1.67500E+0, 3.04788E-5
 1.68000E+0, 3.04788E-5
 1.68500E+0, 3.04788E-5
 1.69000E+0, 3.04788E-5
 1.69500E+0, 3.04788E-5
 1.70000E+0, 3.04788E-5
 1.70500E+0, 3.04788E-5
 1.71000E+0, 3.11034E-5
 1.71500E+0, 3.07911E-5
 1.72000E+0, 3.11034E-5
 1.72500E+0, 3.17281E-5
 1.73000E+0, 3.17281E-5
 1.73500E+0, 3.17281E-5
 1.74000E+0, 3.20404E-5
 1.74500E+0, 3.20404E-5
 1.75000E+0, 3.20404E-5
 1.75500E+0, 3.20404E-5
 1.76000E+0, 3.20404E-5
 1.76500E+0, 3.20404E-5
 1.77000E+0, 3.20404E-5
 1.77500E+0, 3.20404E-5
 1.78000E+0, 3.23527E-5
 1.78500E+0, 3.20404E-5
 1.79000E+0, 3.20404E-5
 1.79500E+0, 3.23527E-5
 1.80000E+0, 3.23527E-5
 1.80500E+0, 3.20404E-5
 1.81000E+0, 3.20404E-5
 1.81500E+0, 3.26650E-5
 1.82000E+0, 3.29773E-5
 1.82500E+0, 3.32897E-5
 1.83000E+0, 3.32897E-5
 1.83500E+0, 3.36020E-5
 1.84000E+0, 3.36020E-5
 1.84500E+0, 3.36020E-5
 1.85000E+0, 3.36020E-5
 1.85500E+0, 3.36020E-5
 1.86000E+0, 3.36020E-5
 1.86500E+0, 3.36020E-5
 1.87000E+0, 3.36020E-5
 1.87500E+0, 3.36020E-5
 1.88000E+0, 3.36020E-5
 1.88500E+0, 3.42266E-5
 1.89000E+0, 3.39143E-5
 1.89500E+0, 3.45390E-5
 1.90000E+0, 3.45390E-5
 1.90500E+0, 3.48513E-5
 1.91000E+0, 3.51636E-5
 1.91500E+0, 3.57882E-5
 1.92000E+0, 3.61006E-5
 1.92500E+0, 3.57882E-5
 1.93000E+0, 3.67252E-5
 1.93500E+0, 3.67252E-5
 1.94000E+0, 3.67252E-5
 1.94500E+0, 3.67252E-5
 1.95000E+0, 3.67252E-5
 1.95500E+0, 3.70375E-5
 1.96000E+0, 3.67252E-5
 1.96500E+0, 3.70375E-5
 1.97000E+0, 3.79745E-5
 1.97500E+0, 3.79745E-5
 1.98000E+0, 3.76622E-5
 1.98500E+0, 3.82868E-5
 1.99000E+0, 3.82868E-5
 1.99500E+0, 3.82868E-5
 2.00000E+0, 3.82868E-5
 2.00500E+0, 3.82868E-5
 2.01000E+0, 3.82868E-5
 2.01500E+0, 3.82868E-5
 2.02000E+0, 3.82868E-5
 2.02500E+0, 3.82868E-5
 2.03000E+0, 3.82868E-5
 2.03500E+0, 3.82868E-5
 2.04000E+0, 3.82868E-5
 2.04500E+0, 3.89114E-5
 2.05000E+0, 3.92238E-5
 2.05500E+0, 3.92238E-5
 2.06000E+0, 3.89114E-5
 2.06500E+0, 3.98484E-5
 2.07000E+0, 3.98484E-5
 2.07500E+0, 3.98484E-5
 2.08000E+0, 3.98484E-5
 2.08500E+0, 3.98484E-5
 2.09000E+0, 3.98484E-5
 2.09500E+0, 3.98484E-5
 2.10000E+0, 3.98484E-5
 2.10500E+0, 3.98484E-5
 2.11000E+0, 4.01607E-5
 2.11500E+0, 4.01607E-5
 2.12000E+0, 4.07854E-5
 2.12500E+0, 4.10977E-5
 2.13000E+0, 4.14100E-5
 2.13500E+0, 4.26593E-5
 2.14000E+0, 4.17223E-5
 2.14500E+0, 4.23470E-5
 2.15000E+0, 4.29716E-5
 2.15500E+0, 4.29716E-5
 2.16000E+0, 4.29716E-5
 2.16500E+0, 4.29716E-5
 2.17000E+0, 4.29716E-5
 2.17500E+0, 4.32839E-5
 2.18000E+0, 4.39086E-5
 2.18500E+0, 4.39086E-5
 2.19000E+0, 4.45332E-5
 2.19500E+0, 4.42209E-5
 2.20000E+0, 4.45332E-5
 2.20500E+0, 4.45332E-5
 2.21000E+0, 4.45332E-5
 2.21500E+0, 4.45332E-5
 2.22000E+0, 4.45332E-5
 2.22500E+0, 4.45332E-5
 2.23000E+0, 4.45332E-5
 2.23500E+0, 4.45332E-5
 2.24000E+0, 4.45332E-5
 2.24500E+0, 4.48455E-5
 2.25000E+0, 4.48455E-5
 2.25500E+0, 4.54702E-5
 2.26000E+0, 4.60948E-5
 2.26500E+0, 4.54702E-5
 2.27000E+0, 4.60948E-5
 2.27500E+0, 4.60948E-5
 2.28000E+0, 4.60948E-5
 2.28500E+0, 4.60948E-5
 2.29000E+0, 4.60948E-5
 2.29500E+0, 4.60948E-5
 2.30000E+0, 4.60948E-5
 2.30500E+0, 4.60948E-5
 2.31000E+0, 4.67195E-5
 2.31500E+0, 4.67195E-5
 2.32000E+0, 4.85934E-5
 2.32500E+0, 4.85934E-5
 2.33000E+0, 4.92180E-5
 2.33500E+0, 4.92180E-5
 2.34000E+0, 4.92180E-5
 2.34500E+0, 4.92180E-5
 2.35000E+0, 4.92180E-5
 2.35500E+0, 4.92180E-5
 2.36000E+0, 4.95303E-5
 2.36500E+0, 5.01550E-5
 2.37000E+0, 5.04673E-5
 2.37500E+0, 5.07796E-5
 2.38000E+0, 5.07796E-5
 2.38500E+0, 5.07796E-5
 2.39000E+0, 5.07796E-5
 2.39500E+0, 5.07796E-5
 2.40000E+0, 5.07796E-5
 2.40500E+0, 5.07796E-5
 2.41000E+0, 5.07796E-5
 2.41500E+0, 5.07796E-5
 2.42000E+0, 5.10919E-5
 2.42500E+0, 5.14043E-5
 2.43000E+0, 5.14043E-5
 2.43500E+0, 5.17166E-5
 2.44000E+0, 5.23412E-5
 2.44500E+0, 5.23412E-5
 2.45000E+0, 5.23412E-5
 2.45500E+0, 5.23412E-5
 2.46000E+0, 5.23412E-5
 2.46500E+0, 5.26535E-5
 2.47000E+0, 5.29659E-5
 2.47500E+0, 5.29659E-5
 2.48000E+0, 5.48398E-5
 2.48500E+0, 5.51521E-5
 2.49000E+0, 5.51521E-5
 2.49500E+0, 5.54644E-5
 2.50000E+0, 5.54644E-5
 2.50500E+0, 5.54644E-5
 2.51000E+0, 5.54644E-5
 2.51500E+0, 5.54644E-5
 2.52000E+0, 5.54644E-5
 2.52500E+0, 5.60891E-5
 2.53000E+0, 5.67137E-5
 2.53500E+0, 5.70260E-5
 2.54000E+0, 5.70260E-5
 2.54500E+0, 5.70260E-5
 2.55000E+0, 5.70260E-5
 2.55500E+0, 5.70260E-5
 2.56000E+0, 5.70260E-5
 2.56500E+0, 5.70260E-5
 2.57000E+0, 5.70260E-5
 2.57500E+0, 5.70260E-5
 2.58000E+0, 5.79630E-5
 2.58500E+0, 5.82753E-5
 2.59000E+0, 5.82753E-5
 2.59500E+0, 5.85876E-5
 2.60000E+0, 5.85876E-5
 2.60500E+0, 5.85876E-5
 2.61000E+0, 5.85876E-5
 2.61500E+0, 5.85876E-5
 2.62000E+0, 5.95246E-5
 2.62500E+0, 5.98369E-5
 2.63000E+0, 6.01492E-5
 2.63500E+0, 6.17108E-5
 2.64000E+0, 6.17108E-5
 2.64500E+0, 6.17108E-5
 2.65000E+0, 6.17108E-5
 2.65500E+0, 6.17108E-5
 2.66000E+0, 6.20232E-5
 2.66500E+0, 6.20232E-5
 2.67000E+0, 6.26478E-5
 2.67500E+0, 6.32724E-5
 2.68000E+0, 6.32724E-5
 2.68500E+0, 6.32724E-5
 2.69000E+0, 6.32724E-5
 2.69500E+0, 6.32724E-5
 2.70000E+0, 6.32724E-5
 2.70500E+0, 6.32724E-5
 2.71000E+0, 6.35848E-5
 2.71500E+0, 6.38971E-5
 2.72000E+0, 6.38971E-5
 2.72500E+0, 6.48340E-5
 2.73000E+0, 6.48340E-5
 2.73500E+0, 6.48340E-5
 2.74000E+0, 6.48340E-5
 2.74500E+0, 6.48340E-5
 2.75000E+0, 6.48340E-5
 2.75500E+0, 6.60833E-5
 2.76000E+0, 6.60833E-5
 2.76500E+0, 6.76449E-5
 2.77000E+0, 6.79573E-5
 2.77500E+0, 6.79573E-5
 2.78000E+0, 6.79573E-5
 2.78500E+0, 6.79573E-5
 2.79000E+0, 6.79573E-5
 2.79500E+0, 6.82696E-5
 2.80000E+0, 6.92065E-5
 2.80500E+0, 6.95189E-5
 2.81000E+0, 6.95189E-5
 2.81500E+0, 6.95189E-5
 2.82000E+0, 6.95189E-5
 2.82500E+0, 6.95189E-5
 2.83000E+0, 6.95189E-5
 2.83500E+0, 6.95189E-5
 2.84000E+0, 7.01435E-5
 2.84500E+0, 7.04558E-5
 2.85000E+0, 7.10805E-5
 2.85500E+0, 7.10805E-5
 2.86000E+0, 7.10805E-5
 2.86500E+0, 7.13928E-5
 2.87000E+0, 7.13928E-5
 2.87500E+0, 7.26421E-5
 2.88000E+0, 7.32667E-5
 2.88500E+0, 7.42037E-5
 2.89000E+0, 7.42037E-5
 2.89500E+0, 7.42037E-5
 2.90000E+0, 7.42037E-5
 2.90500E+0, 7.42037E-5
 2.91000E+0, 7.45160E-5
 2.91500E+0, 7.57653E-5
 2.92000E+0, 7.57653E-5
 2.92500E+0, 7.57653E-5
 2.93000E+0, 7.57653E-5
 2.93500E+0, 7.57653E-5
 2.94000E+0, 7.57653E-5
 2.94500E+0, 7.57653E-5
 2.95000E+0, 7.70145E-5
 2.95500E+0, 7.73269E-5
 2.96000E+0, 7.73269E-5
 2.96500E+0, 7.73269E-5
 2.97000E+0, 7.73269E-5
 2.97500E+0, 7.73269E-5
 2.98000E+0, 7.73269E-5
 2.98500E+0, 7.88885E-5
 2.99000E+0, 8.04501E-5
 2.99500E+0, 8.04501E-5
 3.00000E+0, 8.04501E-5
 3.00500E+0, 8.04501E-5
 3.01000E+0, 8.04501E-5
 3.01500E+0, 8.04501E-5
 3.02000E+0, 8.16994E-5
 3.02500E+0, 8.20117E-5
 3.03000E+0, 8.20117E-5
 3.03500E+0, 8.20117E-5
 3.04000E+0, 8.20117E-5
 3.04500E+0, 8.20117E-5
 3.05000E+0, 8.23240E-5
 3.05500E+0, 8.23240E-5
 3.06000E+0, 8.35733E-5
 3.06500E+0, 8.35733E-5
 3.07000E+0, 8.35733E-5
 3.07500E+0, 8.35733E-5
 3.08000E+0, 8.35733E-5
 3.08500E+0, 8.45102E-5
 3.09000E+0, 8.60718E-5
 3.09500E+0, 8.66965E-5
 3.10000E+0, 8.66965E-5
 3.10500E+0, 8.66965E-5
 3.11000E+0, 8.70088E-5
 3.11500E+0, 8.70088E-5
 3.12000E+0, 8.79458E-5
 3.12500E+0, 8.82581E-5
 3.13000E+0, 8.82581E-5
 3.13500E+0, 8.82581E-5
 3.14000E+0, 8.82581E-5
 3.14500E+0, 8.82581E-5
 3.15000E+0, 8.88827E-5
 3.15500E+0, 8.98197E-5
 3.16000E+0, 8.98197E-5
 3.16500E+0, 8.98197E-5
 3.17000E+0, 8.98197E-5
 3.17500E+0, 9.01320E-5
 3.18000E+0, 9.04443E-5
 3.18500E+0, 9.23183E-5
 3.19000E+0, 9.26306E-5
 3.19500E+0, 9.29429E-5
 3.20000E+0, 9.29429E-5
 3.20500E+0, 9.29429E-5
 3.21000E+0, 9.38799E-5
 3.21500E+0, 9.45045E-5
 3.22000E+0, 9.45045E-5
 3.22500E+0, 9.45045E-5
 3.23000E+0, 9.45045E-5
 3.23500E+0, 9.48168E-5
 3.24000E+0, 9.51291E-5
 3.24500E+0, 9.57538E-5
 3.25000E+0, 9.60661E-5
 3.25500E+0, 9.60661E-5
 3.26000E+0, 9.60661E-5
 3.26500E+0, 9.63784E-5
 3.27000E+0, 9.82523E-5
 3.27500E+0, 9.91893E-5
 3.28000E+0, 9.91893E-5
 3.28500E+0, 9.91893E-5
 3.29000E+0, 9.98139E-5
 3.29500E+0, 9.98139E-5
 3.30000E+0, 1.00751E-4
 3.30500E+0, 1.00751E-4
 3.31000E+0, 1.00751E-4
 3.31500E+0, 1.00751E-4
 3.32000E+0, 1.00751E-4
 3.32500E+0, 1.01063E-4
 3.33000E+0, 1.02313E-4
 3.33500E+0, 1.02313E-4
 3.34000E+0, 1.02313E-4
 3.34500E+0, 1.02313E-4
 3.35000E+0, 1.02937E-4
 3.35500E+0, 1.04811E-4
 3.36000E+0, 1.05436E-4
 3.36500E+0, 1.05436E-4
 3.37000E+0, 1.05436E-4
 3.37500E+0, 1.05436E-4
 3.38000E+0, 1.06685E-4
 3.38500E+0, 1.06997E-4
 3.39000E+0, 1.06997E-4
 3.39500E+0, 1.06997E-4
 3.40000E+0, 1.06997E-4
 3.40500E+0, 1.07934E-4
 3.41000E+0, 1.08559E-4
 3.41500E+0, 1.08559E-4
 3.42000E+0, 1.08559E-4
 3.42500E+0, 1.08871E-4
 3.43000E+0, 1.09808E-4
 3.43500E+0, 1.11682E-4
 3.44000E+0, 1.11682E-4
 3.44500E+0, 1.11682E-4
 3.45000E+0, 1.12619E-4
 3.45500E+0, 1.13244E-4
 3.46000E+0, 1.13244E-4
 3.46500E+0, 1.13244E-4
 3.47000E+0, 1.13244E-4
 3.47500E+0, 1.13244E-4
 3.48000E+0, 1.14493E-4
 3.48500E+0, 1.14805E-4
 3.49000E+0, 1.14805E-4
 3.49500E+0, 1.14805E-4
 3.50000E+0, 1.15118E-4
 3.50500E+0, 1.16679E-4
 3.51000E+0, 1.17929E-4
 3.51500E+0, 1.17929E-4
 3.52000E+0, 1.17929E-4
 3.52500E+0, 1.18866E-4
 3.53000E+0, 1.19490E-4
 3.53500E+0, 1.19490E-4
 3.54000E+0, 1.19490E-4
 3.54500E+0, 1.19802E-4
 3.55000E+0, 1.20427E-4
 3.55500E+0, 1.21052E-4
 3.56000E+0, 1.21052E-4
 3.56500E+0, 1.21052E-4
 3.57000E+0, 1.21989E-4
 3.57500E+0, 1.22926E-4
 3.58000E+0, 1.23863E-4
 3.58500E+0, 1.24175E-4
 3.59000E+0, 1.24800E-4
 3.59500E+0, 1.25737E-4
 3.60000E+0, 1.25737E-4
 3.60500E+0, 1.25737E-4
 3.61000E+0, 1.25737E-4
 3.61500E+0, 1.26674E-4
 3.62000E+0, 1.27298E-4
 3.62500E+0, 1.27298E-4
 3.63000E+0, 1.27298E-4
 3.63500E+0, 1.27923E-4
 3.64000E+0, 1.29484E-4
 3.64500E+0, 1.30421E-4
 3.65000E+0, 1.30421E-4
 3.65500E+0, 1.30734E-4
 3.66000E+0, 1.31983E-4
 3.66500E+0, 1.31983E-4
 3.67000E+0, 1.31983E-4
 3.67500E+0, 1.32295E-4
 3.68000E+0, 1.32920E-4
 3.68500E+0, 1.33545E-4
 3.69000E+0, 1.33545E-4
 3.69500E+0, 1.33545E-4
 3.70000E+0, 1.34794E-4
 3.70500E+0, 1.35731E-4
 3.71000E+0, 1.36043E-4
 3.71500E+0, 1.36668E-4
 3.72000E+0, 1.37605E-4
 3.72500E+0, 1.38229E-4
 3.73000E+0, 1.38229E-4
 3.73500E+0, 1.38229E-4
 3.74000E+0, 1.38854E-4
 3.74500E+0, 1.39791E-4
 3.75000E+0, 1.39791E-4
 3.75500E+0, 1.40103E-4
 3.76000E+0, 1.41353E-4
 3.76500E+0, 1.41353E-4
 3.77000E+0, 1.42602E-4
 3.77500E+0, 1.42914E-4
 3.78000E+0, 1.44476E-4
 3.78500E+0, 1.44476E-4
 3.79000E+0, 1.44476E-4
 3.79500E+0, 1.45100E-4
 3.80000E+0, 1.45413E-4
 3.80500E+0, 1.46037E-4
 3.81000E+0, 1.46037E-4
 3.81500E+0, 1.46350E-4
 3.82000E+0, 1.47287E-4
 3.82500E+0, 1.47911E-4
 3.83000E+0, 1.49161E-4
 3.83500E+0, 1.49785E-4
 3.84000E+0, 1.50722E-4
 3.84500E+0, 1.50722E-4
 3.85000E+0, 1.51035E-4
 3.85500E+0, 1.52284E-4
 3.86000E+0, 1.52284E-4
 3.86500E+0, 1.52284E-4
 3.87000E+0, 1.52284E-4
 3.87500E+0, 1.53845E-4
 3.88000E+0, 1.53845E-4
 3.88500E+0, 1.55407E-4
 3.89000E+0, 1.56656E-4
 3.89500E+0, 1.56656E-4
 3.90000E+0, 1.56969E-4
 3.90500E+0, 1.57281E-4
 3.91000E+0, 1.58530E-4
 3.91500E+0, 1.58530E-4
 3.92000E+0, 1.58530E-4
 3.92500E+0, 1.58530E-4
 3.93000E+0, 1.59779E-4
 3.93500E+0, 1.60092E-4
 3.94000E+0, 1.61341E-4
 3.94500E+0, 1.63215E-4
 3.95000E+0, 1.63215E-4
 3.95500E+0, 1.63215E-4
 3.96000E+0, 1.64777E-4
 3.96500E+0, 1.64777E-4
 3.97000E+0, 1.64777E-4
 3.97500E+0, 1.64777E-4
 3.98000E+0, 1.66338E-4
 3.98500E+0, 1.66338E-4
 3.99000E+0, 1.66963E-4
 3.99500E+0, 1.69149E-4
 4.00000E+0, 1.69461E-4
 4.00500E+0, 1.69461E-4
 4.01000E+0, 1.70398E-4
 4.01500E+0, 1.71023E-4
 4.02000E+0, 1.71023E-4
 4.02500E+0, 1.71648E-4
 4.03000E+0, 1.72585E-4
 4.03500E+0, 1.72585E-4
 4.04000E+0, 1.73834E-4
 4.04500E+0, 1.75708E-4
 4.05000E+0, 1.75708E-4
 4.05500E+0, 1.75708E-4
 4.06000E+0, 1.77269E-4
 4.06500E+0, 1.77269E-4
 4.07000E+0, 1.77269E-4
 4.07500E+0, 1.78831E-4
 4.08000E+0, 1.78831E-4
 4.08500E+0, 1.78831E-4
 4.09000E+0, 1.80393E-4
 4.09500E+0, 1.81954E-4
 4.10000E+0, 1.81954E-4
 4.10500E+0, 1.83204E-4
 4.11000E+0, 1.83516E-4
 4.11500E+0, 1.83516E-4
 4.12000E+0, 1.83828E-4
 4.12500E+0, 1.85077E-4
 4.13000E+0, 1.85077E-4
 4.13500E+0, 1.86327E-4
 4.14000E+0, 1.88201E-4
 4.14500E+0, 1.88201E-4
 4.15000E+0, 1.89762E-4
 4.15500E+0, 1.89762E-4
 4.16000E+0, 1.89762E-4
 4.16500E+0, 1.90387E-4
 4.17000E+0, 1.91324E-4
 4.17500E+0, 1.91324E-4
 4.18000E+0, 1.92885E-4
 4.18500E+0, 1.94447E-4
 4.19000E+0, 1.94447E-4
 4.19500E+0, 1.95696E-4
 4.20000E+0, 1.96009E-4
 4.20500E+0, 1.96009E-4
 4.21000E+0, 1.96946E-4
 4.21500E+0, 1.97570E-4
 4.22000E+0, 1.97883E-4
 4.22500E+0, 1.99132E-4
 4.23000E+0, 2.00381E-4
 4.23500E+0, 2.01630E-4
 4.24000E+0, 2.02255E-4
 4.24500E+0, 2.02567E-4
 4.25000E+0, 2.03504E-4
 4.25500E+0, 2.03817E-4
 4.26000E+0, 2.03817E-4
 4.26500E+0, 2.05066E-4
 4.27000E+0, 2.05378E-4
 4.27500E+0, 2.06940E-4
 4.28000E+0, 2.08502E-4
 4.28500E+0, 2.08502E-4
 4.29000E+0, 2.09438E-4
 4.29500E+0, 2.10063E-4
 4.30000E+0, 2.10063E-4
 4.30500E+0, 2.10688E-4
 4.31000E+0, 2.11625E-4
 4.31500E+0, 2.12874E-4
 4.32000E+0, 2.14436E-4
 4.32500E+0, 2.14748E-4
 4.33000E+0, 2.15685E-4
 4.33500E+0, 2.16310E-4
 4.34000E+0, 2.16310E-4
 4.34500E+0, 2.17559E-4
 4.35000E+0, 2.17871E-4
 4.35500E+0, 2.18183E-4
 4.36000E+0, 2.20994E-4
 4.36500E+0, 2.20994E-4
 4.37000E+0, 2.22244E-4
 4.37500E+0, 2.22556E-4
 4.38000E+0, 2.22556E-4
 4.38500E+0, 2.24118E-4
 4.39000E+0, 2.24118E-4
 4.39500E+0, 2.25367E-4
 4.40000E+0, 2.27241E-4
 4.40500E+0, 2.27553E-4
 4.41000E+0, 2.28802E-4
 4.41500E+0, 2.28802E-4
 4.42000E+0, 2.30052E-4
 4.42500E+0, 2.30364E-4
 4.43000E+0, 2.30676E-4
 4.43500E+0, 2.32550E-4
 4.44000E+0, 2.33487E-4
 4.44500E+0, 2.35049E-4
 4.45000E+0, 2.35049E-4
 4.45500E+0, 2.35361E-4
 4.46000E+0, 2.36610E-4
 4.46500E+0, 2.36610E-4
 4.47000E+0, 2.38172E-4
 4.47500E+0, 2.39421E-4
 4.48000E+0, 2.40671E-4
 4.48500E+0, 2.41295E-4
 4.49000E+0, 2.42544E-4
 4.49500E+0, 2.42857E-4
 4.50000E+0, 2.42857E-4
 4.50500E+0, 2.44106E-4
 4.51000E+0, 2.44418E-4
 4.51500E+0, 2.46605E-4
 4.52000E+0, 2.47542E-4
 4.52500E+0, 2.48791E-4
 4.53000E+0, 2.49103E-4
 4.53500E+0, 2.49728E-4
 4.54000E+0, 2.50665E-4
 4.54500E+0, 2.50977E-4
 4.55000E+0, 2.53788E-4
 4.55500E+0, 2.53788E-4
 4.56000E+0, 2.55037E-4
 4.56500E+0, 2.55350E-4
 4.57000E+0, 2.55662E-4
 4.57500E+0, 2.56911E-4
 4.58000E+0, 2.57224E-4
 4.58500E+0, 2.59097E-4
 4.59000E+0, 2.60347E-4
 4.59500E+0, 2.61596E-4
 4.60000E+0, 2.61596E-4
 4.60500E+0, 2.63158E-4
 4.61000E+0, 2.63158E-4
 4.61500E+0, 2.64407E-4
 4.62000E+0, 2.65968E-4
 4.62500E+0, 2.67530E-4
 4.63000E+0, 2.67842E-4
 4.63500E+0, 2.68467E-4
 4.64000E+0, 2.69404E-4
 4.64500E+0, 2.69716E-4
 4.65000E+0, 2.70966E-4
 4.65500E+0, 2.72840E-4
 4.66000E+0, 2.74089E-4
 4.66500E+0, 2.74089E-4
 4.67000E+0, 2.75650E-4
 4.67500E+0, 2.75650E-4
 4.68000E+0, 2.77212E-4
 4.68500E+0, 2.77212E-4
 4.69000E+0, 2.80335E-4
 4.69500E+0, 2.80335E-4
 4.70000E+0, 2.81897E-4
 4.70500E+0, 2.81897E-4
 4.71000E+0, 2.83458E-4
 4.71500E+0, 2.83458E-4
 4.72000E+0, 2.85332E-4
 4.72500E+0, 2.86582E-4
 4.73000E+0, 2.88143E-4
 4.73500E+0, 2.88143E-4
 4.74000E+0, 2.89393E-4
 4.74500E+0, 2.89705E-4
 4.75000E+0, 2.91266E-4
 4.75500E+0, 2.91891E-4
 4.76000E+0, 2.94390E-4
 4.76500E+0, 2.94390E-4
 4.77000E+0, 2.95951E-4
 4.77500E+0, 2.95951E-4
 4.78000E+0, 2.97513E-4
 4.78500E+0, 2.97825E-4
 4.79000E+0, 3.00636E-4
 4.79500E+0, 3.01573E-4
 4.80000E+0, 3.02198E-4
 4.80500E+0, 3.02510E-4
 4.81000E+0, 3.03759E-4
 4.81500E+0, 3.04072E-4
 4.82000E+0, 3.06882E-4
 4.82500E+0, 3.07507E-4
 4.83000E+0, 3.08444E-4
 4.83500E+0, 3.09069E-4
 4.84000E+0, 3.10006E-4
 4.84500E+0, 3.11567E-4
 4.85000E+0, 3.13129E-4
 4.85500E+0, 3.14690E-4
 4.86000E+0, 3.15003E-4
 4.86500E+0, 3.16252E-4
 4.87000E+0, 3.16252E-4
 4.87500E+0, 3.17814E-4
 4.88000E+0, 3.20312E-4
 4.88500E+0, 3.20937E-4
 4.89000E+0, 3.22186E-4
 4.89500E+0, 3.22499E-4
 4.90000E+0, 3.24060E-4
 4.90500E+0, 3.24372E-4
 4.91000E+0, 3.26871E-4
 4.91500E+0, 3.27496E-4
 4.92000E+0, 3.28745E-4
 4.92500E+0, 3.29682E-4
 4.93000E+0, 3.30307E-4
 4.93500E+0, 3.31868E-4
 4.94000E+0, 3.33117E-4
 4.94500E+0, 3.34991E-4
 4.95000E+0, 3.36241E-4
 4.95500E+0, 3.36553E-4
 4.96000E+0, 3.38115E-4
 4.96500E+0, 3.38115E-4
 4.97000E+0, 3.40925E-4
 4.97500E+0, 3.42175E-4
 4.98000E+0, 3.42799E-4
 4.98500E+0, 3.44049E-4
 4.99000E+0, 3.44361E-4
 4.99500E+0, 3.46547E-4
 5.00000E+0, 3.47796E-4
