Sweep (V)@Temporary,Measure (A)@Temporary
 0.00000E+0, 3.92415E-5
 8.00000E-3, 3.92415E-5
 1.60000E-2, 3.92415E-5
 2.40000E-2, 3.92415E-5
 3.20000E-2, 3.92415E-5
 4.00000E-2, 3.92415E-5
 4.80000E-2, 3.92415E-5
 5.60000E-2, 3.92415E-5
 6.40000E-2, 3.92415E-5
 7.20000E-2, 3.92415E-5
 8.00000E-2, 3.92415E-5
 8.80000E-2, 3.92415E-5
 9.60000E-2, 3.92415E-5
 1.04000E-1, 3.92415E-5
 1.12000E-1, 3.92415E-5
 1.20000E-1, 4.23647E-5
 1.28000E-1, 3.92415E-5
 1.36000E-1, 3.92415E-5
 1.44000E-1, 3.92415E-5
 1.52000E-1, 3.92415E-5
 1.60000E-1, 3.92415E-5
 1.68000E-1, 3.92415E-5
 1.76000E-1, 3.92415E-5
 1.84000E-1, 3.92415E-5
 1.92000E-1, 3.92415E-5
 2.00000E-1, 3.92415E-5
 2.08000E-1, 3.92415E-5
 2.16000E-1, 3.92415E-5
 2.24000E-1, 3.92415E-5
 2.32000E-1, 3.92415E-5
 2.40000E-1, 3.92415E-5
 2.48000E-1, 3.92415E-5
 2.56000E-1, 3.92415E-5
 2.64000E-1, 4.23647E-5
 2.72000E-1, 3.92415E-5
 2.80000E-1, 4.23647E-5
 2.88000E-1, 3.92415E-5
 2.96000E-1, 4.23647E-5
 3.04000E-1, 3.92415E-5
 3.12000E-1, 3.92415E-5
 3.20000E-1, 4.23647E-5
 3.28000E-1, 3.92415E-5
 3.36000E-1, 3.92415E-5
 3.44000E-1, 3.92415E-5
 3.52000E-1, 4.23647E-5
 3.60000E-1, 4.23647E-5
 3.68000E-1, 3.92415E-5
 3.76000E-1, 3.92415E-5
 3.84000E-1, 3.92415E-5
 3.92000E-1, 3.92415E-5
 4.00000E-1, 3.92415E-5
 4.08000E-1, 3.92415E-5
 4.16000E-1, 3.92415E-5
 4.24000E-1, 3.92415E-5
 4.32000E-1, 3.92415E-5
 4.40000E-1, 3.92415E-5
 4.48000E-1, 4.23647E-5
 4.56000E-1, 3.92415E-5
 4.64000E-1, 3.92415E-5
 4.72000E-1, 3.92415E-5
 4.80000E-1, 4.23647E-5
 4.88000E-1, 3.92415E-5
 4.96000E-1, 5.48577E-5
 5.04000E-1, 3.92415E-5
 5.12000E-1, 3.92415E-5
 5.20000E-1, 5.79809E-5
 5.28000E-1, 3.92415E-5
 5.36000E-1, 4.54880E-5
 5.44000E-1, 4.23647E-5
 5.52000E-1, 3.92415E-5
 5.60000E-1, 4.54880E-5
 5.68000E-1, 4.54880E-5
 5.76000E-1, 4.86112E-5
 5.84000E-1, 4.86112E-5
 5.92000E-1, 4.23647E-5
 6.00000E-1, 4.23647E-5
 6.08000E-1, 4.54880E-5
 6.16000E-1, 4.54880E-5
 6.24000E-1, 4.54880E-5
 6.32000E-1, 4.86112E-5
 6.40000E-1, 4.86112E-5
 6.48000E-1, 5.48577E-5
 6.56000E-1, 4.54880E-5
 6.64000E-1, 4.23647E-5
 6.72000E-1, 5.79809E-5
 6.80000E-1, 3.92415E-5
 6.88000E-1, 4.54880E-5
 6.96000E-1, 4.86112E-5
 7.04000E-1, 5.17344E-5
 7.12000E-1, 4.23647E-5
 7.20000E-1, 6.11041E-5
 7.28000E-1, 5.48577E-5
 7.36000E-1, 5.48577E-5
 7.44000E-1, 5.79809E-5
 7.52000E-1, 4.23647E-5
 7.60000E-1, 5.48577E-5
 7.68000E-1, 5.48577E-5
 7.76000E-1, 5.48577E-5
 7.84000E-1, 5.79809E-5
 7.92000E-1, 5.79809E-5
 8.00000E-1, 4.86112E-5
 8.08000E-1, 5.79809E-5
 8.16000E-1, 6.42274E-5
 8.24000E-1, 4.86112E-5
 8.32000E-1, 5.48577E-5
 8.40000E-1, 6.11041E-5
 8.48000E-1, 5.17344E-5
 8.56000E-1, 5.48577E-5
 8.64000E-1, 6.11041E-5
 8.72000E-1, 6.42274E-5
 8.80000E-1, 5.79809E-5
 8.88000E-1, 5.79809E-5
 8.96000E-1, 5.48577E-5
 9.04000E-1, 7.04739E-5
 9.12000E-1, 6.42274E-5
 9.20000E-1, 6.11041E-5
 9.28000E-1, 6.73506E-5
 9.36000E-1, 5.48577E-5
 9.44000E-1, 5.17344E-5
 9.52000E-1, 7.04739E-5
 9.60000E-1, 6.42274E-5
 9.68000E-1, 6.73506E-5
 9.76000E-1, 5.79809E-5
 9.84000E-1, 6.73506E-5
 9.92000E-1, 6.42274E-5
 1.00000E+0, 7.04739E-5
 1.00800E+0, 6.73506E-5
 1.01600E+0, 7.04739E-5
 1.02400E+0, 6.73506E-5
 1.03200E+0, 7.04739E-5
 1.04000E+0, 5.79809E-5
 1.04800E+0, 6.73506E-5
 1.05600E+0, 7.04739E-5
 1.06400E+0, 7.04739E-5
 1.07200E+0, 6.42274E-5
 1.08000E+0, 6.73506E-5
 1.08800E+0, 6.73506E-5
 1.09600E+0, 7.04739E-5
 1.10400E+0, 7.04739E-5
 1.11200E+0, 7.04739E-5
 1.12000E+0, 7.04739E-5
 1.12800E+0, 6.73506E-5
 1.13600E+0, 6.73506E-5
 1.14400E+0, 7.04739E-5
 1.15200E+0, 7.04739E-5
 1.16000E+0, 6.73506E-5
 1.16800E+0, 7.04739E-5
 1.17600E+0, 7.04739E-5
 1.18400E+0, 7.04739E-5
 1.19200E+0, 7.04739E-5
 1.20000E+0, 6.73506E-5
 1.20800E+0, 7.04739E-5
 1.21600E+0, 7.04739E-5
 1.22400E+0, 7.04739E-5
 1.23200E+0, 7.04739E-5
 1.24000E+0, 7.04739E-5
 1.24800E+0, 6.73506E-5
 1.25600E+0, 7.04739E-5
 1.26400E+0, 7.04739E-5
 1.27200E+0, 7.04739E-5
 1.28000E+0, 7.04739E-5
 1.28800E+0, 7.04739E-5
 1.29600E+0, 7.04739E-5
 1.30400E+0, 7.04739E-5
 1.31200E+0, 7.04739E-5
 1.32000E+0, 7.04739E-5
 1.32800E+0, 7.04739E-5
 1.33600E+0, 7.04739E-5
 1.34400E+0, 7.04739E-5
 1.35200E+0, 7.04739E-5
 1.36000E+0, 7.04739E-5
 1.36800E+0, 7.04739E-5
 1.37600E+0, 7.04739E-5
 1.38400E+0, 7.04739E-5
 1.39200E+0, 7.04739E-5
 1.40000E+0, 7.04739E-5
 1.40800E+0, 7.04739E-5
 1.41600E+0, 7.04739E-5
 1.42400E+0, 7.04739E-5
 1.43200E+0, 7.04739E-5
 1.44000E+0, 7.04739E-5
 1.44800E+0, 7.04739E-5
 1.45600E+0, 7.04739E-5
 1.46400E+0, 7.04739E-5
 1.47200E+0, 7.04739E-5
 1.48000E+0, 7.04739E-5
 1.48800E+0, 7.04739E-5
 1.49600E+0, 7.04739E-5
 1.50400E+0, 7.04739E-5
 1.51200E+0, 7.04739E-5
 1.52000E+0, 7.04739E-5
 1.52800E+0, 7.04739E-5
 1.53600E+0, 7.04739E-5
 1.54400E+0, 7.04739E-5
 1.55200E+0, 7.04739E-5
 1.56000E+0, 7.04739E-5
 1.56800E+0, 7.04739E-5
 1.57600E+0, 7.04739E-5
 1.58400E+0, 7.04739E-5
 1.59200E+0, 7.04739E-5
 1.60000E+0, 7.04739E-5
 1.60800E+0, 7.04739E-5
 1.61600E+0, 7.04739E-5
 1.62400E+0, 7.04739E-5
 1.63200E+0, 7.04739E-5
 1.64000E+0, 7.04739E-5
 1.64800E+0, 7.04739E-5
 1.65600E+0, 7.04739E-5
 1.66400E+0, 7.04739E-5
 1.67200E+0, 7.04739E-5
 1.68000E+0, 7.04739E-5
 1.68800E+0, 7.04739E-5
 1.69600E+0, 7.04739E-5
 1.70400E+0, 7.04739E-5
 1.71200E+0, 7.04739E-5
 1.72000E+0, 7.04739E-5
 1.72800E+0, 7.04739E-5
 1.73600E+0, 7.04739E-5
 1.74400E+0, 7.04739E-5
 1.75200E+0, 7.04739E-5
 1.76000E+0, 7.35971E-5
 1.76800E+0, 7.04739E-5
 1.77600E+0, 7.04739E-5
 1.78400E+0, 7.35971E-5
 1.79200E+0, 7.04739E-5
 1.80000E+0, 7.35971E-5
 1.80800E+0, 7.04739E-5
 1.81600E+0, 7.35971E-5
 1.82400E+0, 7.35971E-5
 1.83200E+0, 7.04739E-5
 1.84000E+0, 7.35971E-5
 1.84800E+0, 7.04739E-5
 1.85600E+0, 7.35971E-5
 1.86400E+0, 7.04739E-5
 1.87200E+0, 7.04739E-5
 1.88000E+0, 7.67203E-5
 1.88800E+0, 7.98436E-5
 1.89600E+0, 7.35971E-5
 1.90400E+0, 8.29668E-5
 1.91200E+0, 7.35971E-5
 1.92000E+0, 7.98436E-5
 1.92800E+0, 7.98436E-5
 1.93600E+0, 8.29668E-5
 1.94400E+0, 7.98436E-5
 1.95200E+0, 7.98436E-5
 1.96000E+0, 7.98436E-5
 1.96800E+0, 8.29668E-5
 1.97600E+0, 8.29668E-5
 1.98400E+0, 8.29668E-5
 1.99200E+0, 8.60900E-5
 2.00000E+0, 8.60900E-5
 2.00800E+0, 7.98436E-5
 2.01600E+0, 8.29668E-5
 2.02400E+0, 8.60900E-5
 2.03200E+0, 8.29668E-5
 2.04000E+0, 8.29668E-5
 2.04800E+0, 8.60900E-5
 2.05600E+0, 8.60900E-5
 2.06400E+0, 8.29668E-5
 2.07200E+0, 8.29668E-5
 2.08000E+0, 8.60900E-5
 2.08800E+0, 8.60900E-5
 2.09600E+0, 8.60900E-5
 2.10400E+0, 8.60900E-5
 2.11200E+0, 8.60900E-5
 2.12000E+0, 8.60900E-5
 2.12800E+0, 8.60900E-5
 2.13600E+0, 8.60900E-5
 2.14400E+0, 8.60900E-5
 2.15200E+0, 8.60900E-5
 2.16000E+0, 8.60900E-5
 2.16800E+0, 8.60900E-5
 2.17600E+0, 8.60900E-5
 2.18400E+0, 8.60900E-5
 2.19200E+0, 8.60900E-5
 2.20000E+0, 8.60900E-5
 2.20800E+0, 8.60900E-5
 2.21600E+0, 8.60900E-5
 2.22400E+0, 8.60900E-5
 2.23200E+0, 8.60900E-5
 2.24000E+0, 8.60900E-5
 2.24800E+0, 8.60900E-5
 2.25600E+0, 8.60900E-5
 2.26400E+0, 8.60900E-5
 2.27200E+0, 8.60900E-5
 2.28000E+0, 8.60900E-5
 2.28800E+0, 8.60900E-5
 2.29600E+0, 8.60900E-5
 2.30400E+0, 8.60900E-5
 2.31200E+0, 8.60900E-5
 2.32000E+0, 8.60900E-5
 2.32800E+0, 8.60900E-5
 2.33600E+0, 8.60900E-5
 2.34400E+0, 8.60900E-5
 2.35200E+0, 8.60900E-5
 2.36000E+0, 8.60900E-5
 2.36800E+0, 8.60900E-5
 2.37600E+0, 8.60900E-5
 2.38400E+0, 8.60900E-5
 2.39200E+0, 8.60900E-5
 2.40000E+0, 8.60900E-5
 2.40800E+0, 8.60900E-5
 2.41600E+0, 8.60900E-5
 2.42400E+0, 8.60900E-5
 2.43200E+0, 8.60900E-5
 2.44000E+0, 8.60900E-5
 2.44800E+0, 8.60900E-5
 2.45600E+0, 8.60900E-5
 2.46400E+0, 8.60900E-5
 2.47200E+0, 8.92133E-5
 2.48000E+0, 8.92133E-5
 2.48800E+0, 8.60900E-5
 2.49600E+0, 9.23365E-5
 2.50400E+0, 8.60900E-5
 2.51200E+0, 8.92133E-5
 2.52000E+0, 8.60900E-5
 2.52800E+0, 8.60900E-5
 2.53600E+0, 9.23365E-5
 2.54400E+0, 8.92133E-5
 2.55200E+0, 9.85830E-5
 2.56000E+0, 9.54598E-5
 2.56800E+0, 9.54598E-5
 2.57600E+0, 1.01706E-4
 2.58400E+0, 9.54598E-5
 2.59200E+0, 9.54598E-5
 2.60000E+0, 9.85830E-5
 2.60800E+0, 9.85830E-5
 2.61600E+0, 9.23365E-5
 2.62400E+0, 9.54598E-5
 2.63200E+0, 1.01706E-4
 2.64000E+0, 1.01706E-4
 2.64800E+0, 1.01706E-4
 2.65600E+0, 1.01706E-4
 2.66400E+0, 1.01706E-4
 2.67200E+0, 1.01706E-4
 2.68000E+0, 1.01706E-4
 2.68800E+0, 1.01706E-4
 2.69600E+0, 1.01706E-4
 2.70400E+0, 1.01706E-4
 2.71200E+0, 1.01706E-4
 2.72000E+0, 1.01706E-4
 2.72800E+0, 1.01706E-4
 2.73600E+0, 1.01706E-4
 2.74400E+0, 1.01706E-4
 2.75200E+0, 1.01706E-4
 2.76000E+0, 1.01706E-4
 2.76800E+0, 1.01706E-4
 2.77600E+0, 1.01706E-4
 2.78400E+0, 1.01706E-4
 2.79200E+0, 1.01706E-4
 2.80000E+0, 1.01706E-4
 2.80800E+0, 1.01706E-4
 2.81600E+0, 1.01706E-4
 2.82400E+0, 1.01706E-4
 2.83200E+0, 1.01706E-4
 2.84000E+0, 1.01706E-4
 2.84800E+0, 1.01706E-4
 2.85600E+0, 1.01706E-4
 2.86400E+0, 1.04829E-4
 2.87200E+0, 1.14199E-4
 2.88000E+0, 1.04829E-4
 2.88800E+0, 1.11076E-4
 2.89600E+0, 1.04829E-4
 2.90400E+0, 1.07953E-4
 2.91200E+0, 1.04829E-4
 2.92000E+0, 1.14199E-4
 2.92800E+0, 1.20446E-4
 2.93600E+0, 1.14199E-4
 2.94400E+0, 1.14199E-4
 2.95200E+0, 1.23569E-4
 2.96000E+0, 1.23569E-4
 2.96800E+0, 1.29815E-4
 2.97600E+0, 1.23569E-4
 2.98400E+0, 1.23569E-4
 2.99200E+0, 1.32939E-4
 3.00000E+0, 1.29815E-4
 3.00800E+0, 1.32939E-4
 3.01600E+0, 1.32939E-4
 3.02400E+0, 1.32939E-4
 3.03200E+0, 1.29815E-4
 3.04000E+0, 1.32939E-4
 3.04800E+0, 1.32939E-4
 3.05600E+0, 1.32939E-4
 3.06400E+0, 1.32939E-4
 3.07200E+0, 1.32939E-4
 3.08000E+0, 1.32939E-4
 3.08800E+0, 1.32939E-4
 3.09600E+0, 1.32939E-4
 3.10400E+0, 1.32939E-4
 3.11200E+0, 1.32939E-4
 3.12000E+0, 1.32939E-4
 3.12800E+0, 1.32939E-4
 3.13600E+0, 1.32939E-4
 3.14400E+0, 1.32939E-4
 3.15200E+0, 1.32939E-4
 3.16000E+0, 1.32939E-4
 3.16800E+0, 1.32939E-4
 3.17600E+0, 1.32939E-4
 3.18400E+0, 1.32939E-4
 3.19200E+0, 1.32939E-4
 3.20000E+0, 1.39185E-4
 3.20800E+0, 1.36062E-4
 3.21600E+0, 1.39185E-4
 3.22400E+0, 1.32939E-4
 3.23200E+0, 1.42308E-4
 3.24000E+0, 1.42308E-4
 3.24800E+0, 1.42308E-4
 3.25600E+0, 1.45432E-4
 3.26400E+0, 1.45432E-4
 3.27200E+0, 1.45432E-4
 3.28000E+0, 1.45432E-4
 3.28800E+0, 1.48555E-4
 3.29600E+0, 1.45432E-4
 3.30400E+0, 1.48555E-4
 3.31200E+0, 1.48555E-4
 3.32000E+0, 1.48555E-4
 3.32800E+0, 1.48555E-4
 3.33600E+0, 1.48555E-4
 3.34400E+0, 1.48555E-4
 3.35200E+0, 1.48555E-4
 3.36000E+0, 1.48555E-4
 3.36800E+0, 1.48555E-4
 3.37600E+0, 1.48555E-4
 3.38400E+0, 1.48555E-4
 3.39200E+0, 1.48555E-4
 3.40000E+0, 1.48555E-4
 3.40800E+0, 1.48555E-4
 3.41600E+0, 1.48555E-4
 3.42400E+0, 1.48555E-4
 3.43200E+0, 1.48555E-4
 3.44000E+0, 1.48555E-4
 3.44800E+0, 1.48555E-4
 3.45600E+0, 1.48555E-4
 3.46400E+0, 1.48555E-4
 3.47200E+0, 1.48555E-4
 3.48000E+0, 1.48555E-4
 3.48800E+0, 1.51678E-4
 3.49600E+0, 1.54801E-4
 3.50400E+0, 1.51678E-4
 3.51200E+0, 1.54801E-4
 3.52000E+0, 1.57925E-4
 3.52800E+0, 1.54801E-4
 3.53600E+0, 1.51678E-4
 3.54400E+0, 1.64171E-4
 3.55200E+0, 1.64171E-4
 3.56000E+0, 1.64171E-4
 3.56800E+0, 1.64171E-4
 3.57600E+0, 1.64171E-4
 3.58400E+0, 1.64171E-4
 3.59200E+0, 1.64171E-4
 3.60000E+0, 1.64171E-4
 3.60800E+0, 1.64171E-4
 3.61600E+0, 1.64171E-4
 3.62400E+0, 1.64171E-4
 3.63200E+0, 1.64171E-4
 3.64000E+0, 1.64171E-4
 3.64800E+0, 1.64171E-4
 3.65600E+0, 1.67294E-4
 3.66400E+0, 1.67294E-4
 3.67200E+0, 1.67294E-4
 3.68000E+0, 1.67294E-4
 3.68800E+0, 1.79787E-4
 3.69600E+0, 1.70417E-4
 3.70400E+0, 1.79787E-4
 3.71200E+0, 1.76664E-4
 3.72000E+0, 1.92280E-4
 3.72800E+0, 1.92280E-4
 3.73600E+0, 1.95403E-4
 3.74400E+0, 1.95403E-4
 3.75200E+0, 1.95403E-4
 3.76000E+0, 1.95403E-4
 3.76800E+0, 1.95403E-4
 3.77600E+0, 1.95403E-4
 3.78400E+0, 1.95403E-4
 3.79200E+0, 1.95403E-4
 3.80000E+0, 1.95403E-4
 3.80800E+0, 1.95403E-4
 3.81600E+0, 1.95403E-4
 3.82400E+0, 1.95403E-4
 3.83200E+0, 1.95403E-4
 3.84000E+0, 1.95403E-4
 3.84800E+0, 1.95403E-4
 3.85600E+0, 1.95403E-4
 3.86400E+0, 1.95403E-4
 3.87200E+0, 1.98527E-4
 3.88000E+0, 1.95403E-4
 3.88800E+0, 2.04773E-4
 3.89600E+0, 2.07896E-4
 3.90400E+0, 2.07896E-4
 3.91200E+0, 2.07896E-4
 3.92000E+0, 2.07896E-4
 3.92800E+0, 2.11020E-4
 3.93600E+0, 2.11020E-4
 3.94400E+0, 2.11020E-4
 3.95200E+0, 2.11020E-4
 3.96000E+0, 2.11020E-4
 3.96800E+0, 2.11020E-4
 3.97600E+0, 2.11020E-4
 3.98400E+0, 2.11020E-4
 3.99200E+0, 2.11020E-4
 4.00000E+0, 2.11020E-4
 4.00800E+0, 2.11020E-4
 4.01600E+0, 2.11020E-4
 4.02400E+0, 2.11020E-4
 4.03200E+0, 2.11020E-4
 4.04000E+0, 2.11020E-4
 4.04800E+0, 2.14143E-4
 4.05600E+0, 2.11020E-4
 4.06400E+0, 2.17266E-4
 4.07200E+0, 2.17266E-4
 4.08000E+0, 2.23512E-4
 4.08800E+0, 2.20389E-4
 4.09600E+0, 2.23512E-4
 4.10400E+0, 2.23512E-4
 4.11200E+0, 2.26636E-4
 4.12000E+0, 2.26636E-4
 4.12800E+0, 2.26636E-4
 4.13600E+0, 2.26636E-4
 4.14400E+0, 2.26636E-4
 4.15200E+0, 2.26636E-4
 4.16000E+0, 2.26636E-4
 4.16800E+0, 2.32882E-4
 4.17600E+0, 2.36005E-4
 4.18400E+0, 2.39129E-4
 4.19200E+0, 2.36005E-4
 4.20000E+0, 2.39129E-4
 4.20800E+0, 2.45375E-4
 4.21600E+0, 2.48498E-4
 4.22400E+0, 2.51622E-4
 4.23200E+0, 2.57868E-4
 4.24000E+0, 2.57868E-4
 4.24800E+0, 2.57868E-4
 4.25600E+0, 2.57868E-4
 4.26400E+0, 2.57868E-4
 4.27200E+0, 2.57868E-4
 4.28000E+0, 2.57868E-4
 4.28800E+0, 2.57868E-4
 4.29600E+0, 2.57868E-4
 4.30400E+0, 2.57868E-4
 4.31200E+0, 2.57868E-4
 4.32000E+0, 2.57868E-4
 4.32800E+0, 2.60991E-4
 4.33600E+0, 2.67238E-4
 4.34400E+0, 2.70361E-4
 4.35200E+0, 2.67238E-4
 4.36000E+0, 2.70361E-4
 4.36800E+0, 2.70361E-4
 4.37600E+0, 2.73484E-4
 4.38400E+0, 2.70361E-4
 4.39200E+0, 2.73484E-4
 4.40000E+0, 2.73484E-4
 4.40800E+0, 2.73484E-4
 4.41600E+0, 2.73484E-4
 4.42400E+0, 2.73484E-4
 4.43200E+0, 2.73484E-4
 4.44000E+0, 2.73484E-4
 4.44800E+0, 2.73484E-4
 4.45600E+0, 2.73484E-4
 4.46400E+0, 2.76608E-4
 4.47200E+0, 2.82854E-4
 4.48000E+0, 2.85977E-4
 4.48800E+0, 2.89100E-4
 4.49600E+0, 2.89100E-4
 4.50400E+0, 2.89100E-4
 4.51200E+0, 2.89100E-4
 4.52000E+0, 2.89100E-4
 4.52800E+0, 2.92224E-4
 4.53600E+0, 2.92224E-4
 4.54400E+0, 2.98470E-4
 4.55200E+0, 2.98470E-4
 4.56000E+0, 3.04717E-4
 4.56800E+0, 3.07840E-4
 4.57600E+0, 3.07840E-4
 4.58400E+0, 3.20333E-4
 4.59200E+0, 3.14086E-4
 4.60000E+0, 3.14086E-4
 4.60800E+0, 3.20333E-4
 4.61600E+0, 3.20333E-4
 4.62400E+0, 3.20333E-4
 4.63200E+0, 3.20333E-4
 4.64000E+0, 3.20333E-4
 4.64800E+0, 3.20333E-4
 4.65600E+0, 3.20333E-4
 4.66400E+0, 3.20333E-4
 4.67200E+0, 3.29703E-4
 4.68000E+0, 3.29703E-4
 4.68800E+0, 3.26579E-4
 4.69600E+0, 3.32826E-4
 4.70400E+0, 3.35949E-4
 4.71200E+0, 3.35949E-4
 4.72000E+0, 3.32826E-4
 4.72800E+0, 3.35949E-4
 4.73600E+0, 3.35949E-4
 4.74400E+0, 3.35949E-4
 4.75200E+0, 3.35949E-4
 4.76000E+0, 3.35949E-4
 4.76800E+0, 3.35949E-4
 4.77600E+0, 3.39072E-4
 4.78400E+0, 3.42196E-4
 4.79200E+0, 3.42196E-4
 4.80000E+0, 3.51565E-4
 4.80800E+0, 3.51565E-4
 4.81600E+0, 3.54688E-4
 4.82400E+0, 3.57812E-4
 4.83200E+0, 3.60935E-4
 4.84000E+0, 3.60935E-4
 4.84800E+0, 3.64058E-4
 4.85600E+0, 3.70305E-4
 4.86400E+0, 3.70305E-4
 4.87200E+0, 3.76551E-4
 4.88000E+0, 3.76551E-4
 4.88800E+0, 3.79674E-4
 4.89600E+0, 3.76551E-4
 4.90400E+0, 3.79674E-4
 4.91200E+0, 3.82798E-4
 4.92000E+0, 3.82798E-4
 4.92800E+0, 3.82798E-4
 4.93600E+0, 3.82798E-4
 4.94400E+0, 3.82798E-4
 4.95200E+0, 3.95291E-4
 4.96000E+0, 3.89044E-4
 4.96800E+0, 3.95291E-4
 4.97600E+0, 3.98414E-4
 4.98400E+0, 3.98414E-4
 4.99200E+0, 3.98414E-4
 5.00000E+0, 3.98414E-4
 5.00800E+0, 3.98414E-4
 5.01600E+0, 3.98414E-4
 5.02400E+0, 3.98414E-4
 5.03200E+0, 3.98414E-4
 5.04000E+0, 4.04660E-4
 5.04800E+0, 4.10907E-4
 5.05600E+0, 4.14030E-4
 5.06400E+0, 4.10907E-4
 5.07200E+0, 4.14030E-4
 5.08000E+0, 4.17153E-4
 5.08800E+0, 4.23400E-4
 5.09600E+0, 4.29646E-4
 5.10400E+0, 4.29646E-4
 5.11200E+0, 4.23400E-4
 5.12000E+0, 4.32769E-4
 5.12800E+0, 4.42139E-4
 5.13600E+0, 4.45262E-4
 5.14400E+0, 4.45262E-4
 5.15200E+0, 4.45262E-4
 5.16000E+0, 4.45262E-4
 5.16800E+0, 4.45262E-4
 5.17600E+0, 4.45262E-4
 5.18400E+0, 4.45262E-4
 5.19200E+0, 4.48386E-4
 5.20000E+0, 4.57755E-4
 5.20800E+0, 4.54632E-4
 5.21600E+0, 4.60879E-4
 5.22400E+0, 4.60879E-4
 5.23200E+0, 4.60879E-4
 5.24000E+0, 4.60879E-4
 5.24800E+0, 4.60879E-4
 5.25600E+0, 4.60879E-4
 5.26400E+0, 4.60879E-4
 5.27200E+0, 4.70248E-4
 5.28000E+0, 4.64002E-4
 5.28800E+0, 4.79618E-4
 5.29600E+0, 4.76495E-4
 5.30400E+0, 4.82741E-4
 5.31200E+0, 4.92111E-4
 5.32000E+0, 4.92111E-4
 5.32800E+0, 4.95234E-4
 5.33600E+0, 4.92111E-4
 5.34400E+0, 5.04604E-4
 5.35200E+0, 5.07727E-4
 5.36000E+0, 5.07727E-4
 5.36800E+0, 5.07727E-4
 5.37600E+0, 5.07727E-4
 5.38400E+0, 5.07727E-4
 5.39200E+0, 5.07727E-4
 5.40000E+0, 5.10850E-4
 5.40800E+0, 5.13974E-4
 5.41600E+0, 5.17097E-4
 5.42400E+0, 5.23343E-4
 5.43200E+0, 5.23343E-4
 5.44000E+0, 5.23343E-4
 5.44800E+0, 5.23343E-4
 5.45600E+0, 5.23343E-4
 5.46400E+0, 5.26467E-4
 5.47200E+0, 5.32713E-4
 5.48000E+0, 5.35836E-4
 5.48800E+0, 5.35836E-4
 5.49600E+0, 5.45206E-4
 5.50400E+0, 5.51452E-4
 5.51200E+0, 5.54576E-4
 5.52000E+0, 5.54576E-4
 5.52800E+0, 5.60822E-4
 5.53600E+0, 5.57699E-4
 5.54400E+0, 5.70192E-4
 5.55200E+0, 5.70192E-4
 5.56000E+0, 5.70192E-4
 5.56800E+0, 5.70192E-4
 5.57600E+0, 5.70192E-4
 5.58400E+0, 5.73315E-4
 5.59200E+0, 5.73315E-4
 5.60000E+0, 5.82685E-4
 5.60800E+0, 5.85808E-4
 5.61600E+0, 5.85808E-4
 5.62400E+0, 5.85808E-4
 5.63200E+0, 5.85808E-4
 5.64000E+0, 5.85808E-4
 5.64800E+0, 5.88931E-4
 5.65600E+0, 5.95178E-4
 5.66400E+0, 6.04547E-4
 5.67200E+0, 6.07671E-4
 5.68000E+0, 6.13917E-4
 5.68800E+0, 6.17040E-4
 5.69600E+0, 6.17040E-4
 5.70400E+0, 6.20164E-4
 5.71200E+0, 6.29533E-4
 5.72000E+0, 6.29533E-4
 5.72800E+0, 6.32657E-4
 5.73600E+0, 6.32657E-4
 5.74400E+0, 6.38903E-4
 5.75200E+0, 6.35780E-4
 5.76000E+0, 6.38903E-4
 5.76800E+0, 6.45150E-4
 5.77600E+0, 6.45150E-4
 5.78400E+0, 6.48273E-4
 5.79200E+0, 6.48273E-4
 5.80000E+0, 6.48273E-4
 5.80800E+0, 6.57643E-4
 5.81600E+0, 6.57643E-4
 5.82400E+0, 6.63889E-4
 5.83200E+0, 6.73259E-4
 5.84000E+0, 6.76382E-4
 5.84800E+0, 6.79505E-4
 5.85600E+0, 6.82628E-4
 5.86400E+0, 6.91998E-4
 5.87200E+0, 6.91998E-4
 5.88000E+0, 6.95121E-4
 5.88800E+0, 6.95121E-4
 5.89600E+0, 6.95121E-4
 5.90400E+0, 6.98245E-4
 5.91200E+0, 7.01368E-4
 5.92000E+0, 7.07614E-4
 5.92800E+0, 7.10738E-4
 5.93600E+0, 7.10738E-4
 5.94400E+0, 7.10738E-4
 5.95200E+0, 7.16984E-4
 5.96000E+0, 7.16984E-4
 5.96800E+0, 7.29477E-4
 5.97600E+0, 7.32600E-4
 5.98400E+0, 7.38847E-4
 5.99200E+0, 7.41970E-4
 6.00000E+0, 7.45093E-4
 6.00800E+0, 7.51340E-4
 6.01600E+0, 7.54463E-4
 6.02400E+0, 7.57586E-4
 6.03200E+0, 7.57586E-4
 6.04000E+0, 7.57586E-4
 6.04800E+0, 7.63833E-4
 6.05600E+0, 7.73202E-4
 6.06400E+0, 7.73202E-4
 6.07200E+0, 7.73202E-4
 6.08000E+0, 7.73202E-4
 6.08800E+0, 7.73202E-4
 6.09600E+0, 7.79449E-4
 6.10400E+0, 7.91942E-4
 6.11200E+0, 7.98188E-4
 6.12000E+0, 8.04435E-4
 6.12800E+0, 8.07558E-4
 6.13600E+0, 8.07558E-4
 6.14400E+0, 8.20051E-4
 6.15200E+0, 8.20051E-4
 6.16000E+0, 8.20051E-4
 6.16800E+0, 8.20051E-4
 6.17600E+0, 8.20051E-4
 6.18400E+0, 8.32544E-4
 6.19200E+0, 8.32544E-4
 6.20000E+0, 8.35667E-4
 6.20800E+0, 8.35667E-4
 6.21600E+0, 8.41914E-4
 6.22400E+0, 8.45037E-4
 6.23200E+0, 8.51283E-4
 6.24000E+0, 8.63776E-4
 6.24800E+0, 8.66899E-4
 6.25600E+0, 8.66899E-4
 6.26400E+0, 8.79392E-4
 6.27200E+0, 8.82516E-4
 6.28000E+0, 8.82516E-4
 6.28800E+0, 8.82516E-4
 6.29600E+0, 8.82516E-4
 6.30400E+0, 8.91885E-4
 6.31200E+0, 8.95009E-4
 6.32000E+0, 8.98132E-4
 6.32800E+0, 8.98132E-4
 6.33600E+0, 8.98132E-4
 6.34400E+0, 9.10625E-4
 6.35200E+0, 9.23118E-4
 6.36000E+0, 9.26241E-4
 6.36800E+0, 9.29364E-4
 6.37600E+0, 9.32487E-4
 6.38400E+0, 9.44980E-4
 6.39200E+0, 9.44980E-4
 6.40000E+0, 9.44980E-4
 6.40800E+0, 9.48104E-4
 6.41600E+0, 9.48104E-4
 6.42400E+0, 9.57473E-4
 6.43200E+0, 9.60597E-4
 6.44000E+0, 9.60597E-4
 6.44800E+0, 9.66843E-4
 6.45600E+0, 9.69966E-4
 6.46400E+0, 9.85582E-4
 6.47200E+0, 9.85582E-4
 6.48000E+0, 9.98075E-4
 6.48800E+0, 1.00432E-3
 6.49600E+0, 1.00432E-3
 6.50400E+0, 1.00745E-3
 6.51200E+0, 1.00745E-3
 6.52000E+0, 1.01681E-3
 6.52800E+0, 1.02306E-3
 6.53600E+0, 1.02306E-3
 6.54400E+0, 1.02306E-3
 6.55200E+0, 1.02931E-3
 6.56000E+0, 1.03243E-3
 6.56800E+0, 1.04180E-3
 6.57600E+0, 1.05117E-3
 6.58400E+0, 1.05742E-3
 6.59200E+0, 1.06366E-3
 6.60000E+0, 1.06991E-3
 6.60800E+0, 1.06991E-3
 6.61600E+0, 1.07303E-3
 6.62400E+0, 1.07928E-3
 6.63200E+0, 1.08553E-3
 6.64000E+0, 1.08553E-3
 6.64800E+0, 1.08553E-3
 6.65600E+0, 1.09490E-3
 6.66400E+0, 1.10427E-3
 6.67200E+0, 1.11676E-3
 6.68000E+0, 1.12300E-3
 6.68800E+0, 1.12925E-3
 6.69600E+0, 1.13237E-3
 6.70400E+0, 1.13237E-3
 6.71200E+0, 1.13862E-3
 6.72000E+0, 1.14174E-3
 6.72800E+0, 1.14799E-3
 6.73600E+0, 1.14799E-3
 6.74400E+0, 1.15111E-3
 6.75200E+0, 1.16048E-3
 6.76000E+0, 1.16673E-3
 6.76800E+0, 1.17922E-3
 6.77600E+0, 1.18547E-3
 6.78400E+0, 1.19484E-3
 6.79200E+0, 1.19484E-3
 6.80000E+0, 1.19796E-3
 6.80800E+0, 1.20733E-3
 6.81600E+0, 1.21046E-3
 6.82400E+0, 1.21046E-3
 6.83200E+0, 1.21358E-3
 6.84000E+0, 1.22295E-3
 6.84800E+0, 1.22919E-3
 6.85600E+0, 1.24169E-3
 6.86400E+0, 1.25418E-3
 6.87200E+0, 1.25730E-3
 6.88000E+0, 1.26043E-3
 6.88800E+0, 1.26980E-3
 6.89600E+0, 1.26980E-3
 6.90400E+0, 1.27292E-3
 6.91200E+0, 1.27292E-3
 6.92000E+0, 1.28229E-3
 6.92800E+0, 1.28541E-3
 6.93600E+0, 1.29478E-3
 6.94400E+0, 1.30415E-3
 6.95200E+0, 1.31977E-3
 6.96000E+0, 1.31977E-3
 6.96800E+0, 1.32602E-3
 6.97600E+0, 1.33226E-3
 6.98400E+0, 1.33539E-3
 6.99200E+0, 1.33539E-3
 7.00000E+0, 1.34475E-3
 7.00800E+0, 1.35100E-3
 7.01600E+0, 1.35725E-3
 7.02400E+0, 1.36349E-3
 7.03200E+0, 1.37911E-3
 7.04000E+0, 1.38223E-3
 7.04800E+0, 1.38223E-3
 7.05600E+0, 1.39473E-3
 7.06400E+0, 1.39785E-3
 7.07200E+0, 1.39785E-3
 7.08000E+0, 1.40410E-3
 7.08800E+0, 1.41659E-3
 7.09600E+0, 1.41971E-3
 7.10400E+0, 1.43533E-3
 7.11200E+0, 1.44470E-3
 7.12000E+0, 1.44470E-3
 7.12800E+0, 1.45407E-3
 7.13600E+0, 1.46031E-3
 7.14400E+0, 1.46031E-3
 7.15200E+0, 1.46656E-3
 7.16000E+0, 1.47593E-3
 7.16800E+0, 1.47593E-3
 7.17600E+0, 1.49467E-3
 7.18400E+0, 1.50716E-3
 7.19200E+0, 1.50716E-3
 7.20000E+0, 1.51029E-3
 7.20800E+0, 1.52278E-3
 7.21600E+0, 1.52278E-3
 7.22400E+0, 1.52903E-3
 7.23200E+0, 1.53840E-3
 7.24000E+0, 1.53840E-3
 7.24800E+0, 1.56026E-3
 7.25600E+0, 1.56963E-3
 7.26400E+0, 1.57275E-3
 7.27200E+0, 1.58212E-3
 7.28000E+0, 1.58524E-3
 7.28800E+0, 1.58524E-3
 7.29600E+0, 1.59774E-3
 7.30400E+0, 1.60086E-3
 7.31200E+0, 1.60711E-3
 7.32000E+0, 1.61960E-3
 7.32800E+0, 1.63209E-3
 7.33600E+0, 1.63522E-3
 7.34400E+0, 1.64771E-3
 7.35200E+0, 1.64771E-3
 7.36000E+0, 1.65083E-3
 7.36800E+0, 1.66333E-3
 7.37600E+0, 1.66333E-3
 7.38400E+0, 1.68206E-3
 7.39200E+0, 1.69143E-3
 7.40000E+0, 1.69768E-3
 7.40800E+0, 1.70705E-3
 7.41600E+0, 1.71017E-3
 7.42400E+0, 1.71642E-3
 7.43200E+0, 1.72579E-3
 7.44000E+0, 1.72579E-3
 7.44800E+0, 1.74141E-3
 7.45600E+0, 1.75702E-3
 7.46400E+0, 1.76327E-3
 7.47200E+0, 1.77264E-3
 7.48000E+0, 1.77264E-3
 7.48800E+0, 1.77888E-3
 7.49600E+0, 1.78825E-3
 7.50400E+0, 1.78825E-3
 7.51200E+0, 1.80699E-3
 7.52000E+0, 1.81636E-3
 7.52800E+0, 1.83198E-3
 7.53600E+0, 1.83510E-3
 7.54400E+0, 1.84447E-3
 7.55200E+0, 1.85072E-3
 7.56000E+0, 1.85384E-3
 7.56800E+0, 1.86009E-3
 7.57600E+0, 1.87571E-3
 7.58400E+0, 1.88507E-3
 7.59200E+0, 1.89757E-3
 7.60000E+0, 1.90381E-3
 7.60800E+0, 1.91318E-3
 7.61600E+0, 1.91318E-3
 7.62400E+0, 1.91943E-3
 7.63200E+0, 1.93192E-3
 7.64000E+0, 1.94442E-3
 7.64800E+0, 1.96003E-3
 7.65600E+0, 1.96003E-3
 7.66400E+0, 1.97565E-3
 7.67200E+0, 1.97565E-3
 7.68000E+0, 1.98814E-3
 7.68800E+0, 1.98814E-3
 7.69600E+0, 2.01313E-3
 7.70400E+0, 2.02250E-3
 7.71200E+0, 2.02562E-3
 7.72000E+0, 2.03811E-3
 7.72800E+0, 2.03811E-3
 7.73600E+0, 2.04748E-3
 7.74400E+0, 2.05373E-3
 7.75200E+0, 2.06935E-3
 7.76000E+0, 2.08809E-3
 7.76800E+0, 2.09121E-3
 7.77600E+0, 2.09746E-3
 7.78400E+0, 2.10058E-3
 7.79200E+0, 2.11307E-3
 7.80000E+0, 2.11932E-3
 7.80800E+0, 2.14430E-3
 7.81600E+0, 2.14743E-3
 7.82400E+0, 2.15992E-3
 7.83200E+0, 2.16304E-3
 7.84000E+0, 2.17554E-3
 7.84800E+0, 2.17866E-3
 7.85600E+0, 2.19115E-3
 7.86400E+0, 2.20677E-3
 7.87200E+0, 2.22238E-3
 7.88000E+0, 2.22551E-3
 7.88800E+0, 2.23488E-3
 7.89600E+0, 2.24112E-3
 7.90400E+0, 2.25049E-3
 7.91200E+0, 2.26611E-3
 7.92000E+0, 2.27860E-3
 7.92800E+0, 2.28797E-3
 7.93600E+0, 2.30359E-3
 7.94400E+0, 2.30359E-3
 7.95200E+0, 2.30984E-3
 7.96000E+0, 2.32545E-3
 7.96800E+0, 2.34419E-3
 7.97600E+0, 2.35356E-3
 7.98400E+0, 2.35668E-3
 7.99200E+0, 2.36605E-3
 8.00000E+0, 2.37855E-3
